rest_close_eye_start,rest_close_eye_start_lsl,rest_close_eye_end,rest_close_eye_end_lsl,rest_open_eye_start,rest_open_eye_start_lsl,rest_open_eye_end,rest_open_eye_end_lsl,event,rating_label,kss_rating,time_sec,lsl_timestamp,stress,frustration,phase,trial,tick_soa_s,is_target_double_jump,responded,rt,n_positions,position_phase,correct,hit,false_alarm,miss,participant,calibration_min,formal_min,ratings_every_min,mack_positions,mack_initial_SOA,mack_target_prob
1765237987.3110085,147069.3901844,1765238047.4029477,147129.4816291,1765238050.6651654,147132.7439954,1765238110.8610606,147192.9397562,,,,,,,,,,,,,,,,,,,,Weiyu,3,30,3,12,0.7,0.1
,,,,,,,,KSS,Baseline,2,3,147201.700178,,,,,,,,,,,,,,,Weiyu,3,30,3,12,0.7,0.1
,,,,,,,,Stress,Baseline,,7,147204.9637851,2,,,,,,,,,,,,,,Weiyu,3,30,3,12,0.7,0.1
,,,,,,,,Frustration,Baseline,,10,147208.2004177,,1,,,,,,,,,,,,,Weiyu,3,30,3,12,0.7,0.1
,,,,,,,,,,,15,147213.7075763,,,Mackworth_Calibration,1,0.7,0,0,,,,,,,,Weiyu,3,30,3,12,0.7,0.1
,,,,,,,,,,,16,147214.431923,,,Mackworth_Calibration,2,0.7,0,0,,,,,,,,Weiyu,3,30,3,12,0.7,0.1
,,,,,,,,,,,17,147215.1329704,,,Mackworth_Calibration,3,0.7,1,1,0.4042139000084717,,,,,,,Weiyu,3,30,3,12,0.7,0.1
,,,,,,,,,,,18,147215.8407035,,,Mackworth_Calibration,4,0.7,0,0,,,,,,,,Weiyu,3,30,3,12,0.7,0.1
,,,,,,,,,,,18,147216.5488536,,,Mackworth_Calibration,5,0.7,0,0,,,,,,,,Weiyu,3,30,3,12,0.7,0.1
,,,,,,,,,,,19,147217.2600159,,,Mackworth_Calibration,6,0.7,0,0,,,,,,,,Weiyu,3,30,3,12,0.7,0.1
,,,,,,,,,,,20,147217.9936871,,,Mackworth_Calibration,7,0.7,0,0,,,,,,,,Weiyu,3,30,3,12,0.7,0.1
,,,,,,,,,,,21,147218.7686041,,,Mackworth_Calibration,8,0.7,0,0,,,,,,,,Weiyu,3,30,3,12,0.7,0.1
,,,,,,,,,,,21,147219.4840753,,,Mackworth_Calibration,9,0.7,0,0,,,,,,,,Weiyu,3,30,3,12,0.7,0.1
,,,,,,,,,,,22,147220.222556,,,Mackworth_Calibration,10,0.7,0,0,,,,,,,,Weiyu,3,30,3,12,0.7,0.1
,,,,,,,,,,,23,147220.9536266,,,Mackworth_Calibration,11,0.7,0,0,,,,,,,,Weiyu,3,30,3,12,0.7,0.1
,,,,,,,,,,,23,147221.66219,,,Mackworth_Calibration,12,0.7,0,0,,,,,,,,Weiyu,3,30,3,12,0.7,0.1
,,,,,,,,,,,24,147222.4036778,,,Mackworth_Calibration,13,0.7,0,0,,,,,,,,Weiyu,3,30,3,12,0.7,0.1
,,,,,,,,,,,25,147223.1209095,,,Mackworth_Calibration,14,0.7,0,0,,,,,,,,Weiyu,3,30,3,12,0.7,0.1
,,,,,,,,,,,26,147223.8454795,,,Mackworth_Calibration,15,0.7,0,0,,,,,,,,Weiyu,3,30,3,12,0.7,0.1
,,,,,,,,,,,26,147224.5788024,,,Mackworth_Calibration,16,0.7,0,0,,,,,,,,Weiyu,3,30,3,12,0.7,0.1
,,,,,,,,,,,27,147225.3129091,,,Mackworth_Calibration,17,0.7,0,0,,,,,,,,Weiyu,3,30,3,12,0.7,0.1
,,,,,,,,,,,28,147226.0204266,,,Mackworth_Calibration,18,0.7,0,0,,,,,,,,Weiyu,3,30,3,12,0.7,0.1
,,,,,,,,,,,28,147226.7436401,,,Mackworth_Calibration,19,0.7,0,0,,,,,,,,Weiyu,3,30,3,12,0.7,0.1
,,,,,,,,,,,29,147227.4748587,,,Mackworth_Calibration,20,0.7,0,0,,,,,,,,Weiyu,3,30,3,12,0.7,0.1
,,,,,,,,,,,30,147228.2180008,,,Mackworth_Calibration,21,0.7,0,0,,,,,,,,Weiyu,3,30,3,12,0.7,0.1
,,,,,,,,,,,31,147228.936556,,,Mackworth_Calibration,22,0.7,0,0,,,,,,,,Weiyu,3,30,3,12,0.7,0.1
,,,,,,,,,,,31,147229.6507734,,,Mackworth_Calibration,23,0.7,0,0,,,,,,,,Weiyu,3,30,3,12,0.7,0.1
,,,,,,,,,,,32,147230.3894469,,,Mackworth_Calibration,24,0.7,0,0,,,,,,,,Weiyu,3,30,3,12,0.7,0.1
,,,,,,,,,,,33,147231.1221955,,,Mackworth_Calibration,25,0.7,1,1,0.5002006999857258,,,,,,,Weiyu,3,30,3,12,0.7,0.1
,,,,,,,,,,,34,147231.8811459,,,Mackworth_Calibration,26,0.7,0,0,,,,,,,,Weiyu,3,30,3,12,0.7,0.1
,,,,,,,,,,,34,147232.6078258,,,Mackworth_Calibration,27,0.7,1,1,0.4631855000043288,,,,,,,Weiyu,3,30,3,12,0.7,0.1
,,,,,,,,,,,35,147233.3214873,,,Mackworth_Calibration,28,0.7,0,0,,,,,,,,Weiyu,3,30,3,12,0.7,0.1
,,,,,,,,,,,36,147234.0445684,,,Mackworth_Calibration,29,0.7,0,0,,,,,,,,Weiyu,3,30,3,12,0.7,0.1
,,,,,,,,,,,37,147234.7798759,,,Mackworth_Calibration,30,0.7,0,0,,,,,,,,Weiyu,3,30,3,12,0.7,0.1
,,,,,,,,,,,37,147235.5201323,,,Mackworth_Calibration,31,0.7,0,0,,,,,,,,Weiyu,3,30,3,12,0.7,0.1
,,,,,,,,,,,38,147236.242347,,,Mackworth_Calibration,32,0.7,0,0,,,,,,,,Weiyu,3,30,3,12,0.7,0.1
,,,,,,,,,,,39,147236.9730379,,,Mackworth_Calibration,33,0.7,0,0,,,,,,,,Weiyu,3,30,3,12,0.7,0.1
,,,,,,,,,,,39,147237.70288,,,Mackworth_Calibration,34,0.7,1,1,0.41923050000332296,,,,,,,Weiyu,3,30,3,12,0.7,0.1
,,,,,,,,,,,40,147238.4123008,,,Mackworth_Calibration,35,0.7,0,0,,,,,,,,Weiyu,3,30,3,12,0.7,0.1
,,,,,,,,,,,41,147239.1196863,,,Mackworth_Calibration,36,0.7,0,0,,,,,,,,Weiyu,3,30,3,12,0.7,0.1
,,,,,,,,,,,42,147239.8680859,,,Mackworth_Calibration,37,0.7,0,0,,,,,,,,Weiyu,3,30,3,12,0.7,0.1
,,,,,,,,,,,42,147240.586811,,,Mackworth_Calibration,38,0.7,0,0,,,,,,,,Weiyu,3,30,3,12,0.7,0.1
,,,,,,,,,,,43,147241.3132284,,,Mackworth_Calibration,39,0.7,0,0,,,,,,,,Weiyu,3,30,3,12,0.7,0.1
,,,,,,,,,,,44,147242.03925,,,Mackworth_Calibration,40,0.7,0,0,,,,,,,,Weiyu,3,30,3,12,0.7,0.1
,,,,,,,,,,,44,147242.7477292,,,Mackworth_Calibration,41,0.7,0,0,,,,,,,,Weiyu,3,30,3,12,0.7,0.1
,,,,,,,,,,,45,147243.4958987,,,Mackworth_Calibration,42,0.7,0,0,,,,,,,,Weiyu,3,30,3,12,0.7,0.1
,,,,,,,,,,,46,147244.2029681,,,Mackworth_Calibration,43,0.7,0,0,,,,,,,,Weiyu,3,30,3,12,0.7,0.1
,,,,,,,,,,,47,147244.9049121,,,Mackworth_Calibration,44,0.7,0,0,,,,,,,,Weiyu,3,30,3,12,0.7,0.1
,,,,,,,,,,,47,147245.6062844,,,Mackworth_Calibration,45,0.7,0,0,,,,,,,,Weiyu,3,30,3,12,0.7,0.1
,,,,,,,,,,,48,147246.314703,,,Mackworth_Calibration,46,0.7,0,0,,,,,,,,Weiyu,3,30,3,12,0.7,0.1
,,,,,,,,,,,49,147247.071081,,,Mackworth_Calibration,47,0.7,1,1,0.40981969999847934,,,,,,,Weiyu,3,30,3,12,0.7,0.1
,,,,,,,,,,,50,147247.7864557,,,Mackworth_Calibration,48,0.7,1,1,0.5670441000256687,,,,,,,Weiyu,3,30,3,12,0.7,0.1
,,,,,,,,,,,50,147248.4955018,,,Mackworth_Calibration,49,0.7,0,0,,,,,,,,Weiyu,3,30,3,12,0.7,0.1
,,,,,,,,,,,51,147249.2278162,,,Mackworth_Calibration,50,0.7,0,0,,,,,,,,Weiyu,3,30,3,12,0.7,0.1
,,,,,,,,,,,52,147249.9551095,,,Mackworth_Calibration,51,0.7,0,0,,,,,,,,Weiyu,3,30,3,12,0.7,0.1
,,,,,,,,,,,52,147250.7094427,,,Mackworth_Calibration,52,0.7,0,0,,,,,,,,Weiyu,3,30,3,12,0.7,0.1
,,,,,,,,,,,53,147251.4101109,,,Mackworth_Calibration,53,0.7,0,0,,,,,,,,Weiyu,3,30,3,12,0.7,0.1
,,,,,,,,,,,54,147252.1121882,,,Mackworth_Calibration,54,0.7,0,0,,,,,,,,Weiyu,3,30,3,12,0.7,0.1
,,,,,,,,,,,55,147252.826928,,,Mackworth_Calibration,55,0.7,0,0,,,,,,,,Weiyu,3,30,3,12,0.7,0.1
,,,,,,,,,,,55,147253.5438006,,,Mackworth_Calibration,56,0.7,0,0,,,,,,,,Weiyu,3,30,3,12,0.7,0.1
,,,,,,,,,,,56,147254.2998625,,,Mackworth_Calibration,57,0.7,0,0,,,,,,,,Weiyu,3,30,3,12,0.7,0.1
,,,,,,,,,,,57,147255.0153279,,,Mackworth_Calibration,58,0.7,1,1,0.41113120000227354,,,,,,,Weiyu,3,30,3,12,0.7,0.1
,,,,,,,,,,,57,147255.7466175,,,Mackworth_Calibration,59,0.7,0,0,,,,,,,,Weiyu,3,30,3,12,0.7,0.1
,,,,,,,,,,,58,147256.4521593,,,Mackworth_Calibration,60,0.7,0,0,,,,,,,,Weiyu,3,30,3,12,0.7,0.1
,,,,,,,,,,,59,147257.1578588,,,Mackworth_Calibration,61,0.7,0,0,,,,,,,,Weiyu,3,30,3,12,0.7,0.1
,,,,,,,,,,,60,147257.8596502,,,Mackworth_Calibration,62,0.7,1,1,0.5868912000150885,,,,,,,Weiyu,3,30,3,12,0.7,0.1
,,,,,,,,,,,60,147258.5852119,,,Mackworth_Calibration,63,0.7,0,0,,,,,,,,Weiyu,3,30,3,12,0.7,0.1
,,,,,,,,,,,61,147259.3214798,,,Mackworth_Calibration,64,0.7,1,1,0.39905010000802577,,,,,,,Weiyu,3,30,3,12,0.7,0.1
,,,,,,,,,,,62,147260.0313005,,,Mackworth_Calibration,65,0.7,0,0,,,,,,,,Weiyu,3,30,3,12,0.7,0.1
,,,,,,,,,,,62,147260.7530892,,,Mackworth_Calibration,66,0.7,0,0,,,,,,,,Weiyu,3,30,3,12,0.7,0.1
,,,,,,,,,,,63,147261.478204,,,Mackworth_Calibration,67,0.7,0,0,,,,,,,,Weiyu,3,30,3,12,0.7,0.1
,,,,,,,,,,,64,147262.2369114,,,Mackworth_Calibration,68,0.7,1,1,0.3632942000112962,,,,,,,Weiyu,3,30,3,12,0.7,0.1
,,,,,,,,,,,65,147262.9646722,,,Mackworth_Calibration,69,0.7,0,0,,,,,,,,Weiyu,3,30,3,12,0.7,0.1
,,,,,,,,,,,65,147263.6902896,,,Mackworth_Calibration,70,0.7,0,0,,,,,,,,Weiyu,3,30,3,12,0.7,0.1
,,,,,,,,,,,66,147264.4226784,,,Mackworth_Calibration,71,0.7,0,0,,,,,,,,Weiyu,3,30,3,12,0.7,0.1
,,,,,,,,,,,67,147265.1303425,,,Mackworth_Calibration,72,0.7,0,0,,,,,,,,Weiyu,3,30,3,12,0.7,0.1
,,,,,,,,,,,68,147265.8844702,,,Mackworth_Calibration,73,0.7,0,0,,,,,,,,Weiyu,3,30,3,12,0.7,0.1
,,,,,,,,,,,68,147266.6143139,,,Mackworth_Calibration,74,0.7,0,0,,,,,,,,Weiyu,3,30,3,12,0.7,0.1
,,,,,,,,,,,69,147267.3380631,,,Mackworth_Calibration,75,0.7,0,0,,,,,,,,Weiyu,3,30,3,12,0.7,0.1
,,,,,,,,,,,70,147268.0492959,,,Mackworth_Calibration,76,0.7,0,0,,,,,,,,Weiyu,3,30,3,12,0.7,0.1
,,,,,,,,,,,71,147268.7837494,,,Mackworth_Calibration,77,0.7,0,0,,,,,,,,Weiyu,3,30,3,12,0.7,0.1
,,,,,,,,,,,71,147269.5246715,,,Mackworth_Calibration,78,0.7,0,0,,,,,,,,Weiyu,3,30,3,12,0.7,0.1
,,,,,,,,,,,72,147270.2471097,,,Mackworth_Calibration,79,0.7,1,1,0.3943816000246443,,,,,,,Weiyu,3,30,3,12,0.7,0.1
,,,,,,,,,,,73,147271.0073118,,,Mackworth_Calibration,80,0.7,0,0,,,,,,,,Weiyu,3,30,3,12,0.7,0.1
,,,,,,,,,,,73,147271.7041599,,,Mackworth_Calibration,81,0.6649999999999999,0,0,,,,,,,,Weiyu,3,30,3,12,0.7,0.1
,,,,,,,,,,,74,147272.3706747,,,Mackworth_Calibration,82,0.6649999999999999,0,0,,,,,,,,Weiyu,3,30,3,12,0.7,0.1
,,,,,,,,,,,75,147273.0860681,,,Mackworth_Calibration,83,0.6649999999999999,0,0,,,,,,,,Weiyu,3,30,3,12,0.7,0.1
,,,,,,,,,,,76,147273.7838107,,,Mackworth_Calibration,84,0.6649999999999999,1,1,0.45338940000510775,,,,,,,Weiyu,3,30,3,12,0.7,0.1
,,,,,,,,,,,76,147274.4686977,,,Mackworth_Calibration,85,0.6649999999999999,1,1,0.48913550001452677,,,,,,,Weiyu,3,30,3,12,0.7,0.1
,,,,,,,,,,,77,147275.1754278,,,Mackworth_Calibration,86,0.6649999999999999,0,0,,,,,,,,Weiyu,3,30,3,12,0.7,0.1
,,,,,,,,,,,78,147275.8562572,,,Mackworth_Calibration,87,0.6649999999999999,0,0,,,,,,,,Weiyu,3,30,3,12,0.7,0.1
,,,,,,,,,,,78,147276.5535487,,,Mackworth_Calibration,88,0.6649999999999999,0,0,,,,,,,,Weiyu,3,30,3,12,0.7,0.1
,,,,,,,,,,,79,147277.2394704,,,Mackworth_Calibration,89,0.6649999999999999,0,0,,,,,,,,Weiyu,3,30,3,12,0.7,0.1
,,,,,,,,,,,80,147277.9364974,,,Mackworth_Calibration,90,0.6649999999999999,0,0,,,,,,,,Weiyu,3,30,3,12,0.7,0.1
,,,,,,,,,,,80,147278.6122619,,,Mackworth_Calibration,91,0.6649999999999999,0,0,,,,,,,,Weiyu,3,30,3,12,0.7,0.1
,,,,,,,,,,,81,147279.3007702,,,Mackworth_Calibration,92,0.6649999999999999,0,0,,,,,,,,Weiyu,3,30,3,12,0.7,0.1
,,,,,,,,,,,82,147279.9842724,,,Mackworth_Calibration,93,0.6649999999999999,0,0,,,,,,,,Weiyu,3,30,3,12,0.7,0.1
,,,,,,,,,,,82,147280.6735228,,,Mackworth_Calibration,94,0.6649999999999999,0,0,,,,,,,,Weiyu,3,30,3,12,0.7,0.1
,,,,,,,,,,,83,147281.3758152,,,Mackworth_Calibration,95,0.6649999999999999,0,0,,,,,,,,Weiyu,3,30,3,12,0.7,0.1
,,,,,,,,,,,84,147282.0463167,,,Mackworth_Calibration,96,0.6649999999999999,0,0,,,,,,,,Weiyu,3,30,3,12,0.7,0.1
,,,,,,,,,,,84,147282.7118104,,,Mackworth_Calibration,97,0.6649999999999999,0,0,,,,,,,,Weiyu,3,30,3,12,0.7,0.1
,,,,,,,,,,,85,147283.4005689,,,Mackworth_Calibration,98,0.6649999999999999,0,0,,,,,,,,Weiyu,3,30,3,12,0.7,0.1
,,,,,,,,,,,86,147284.0840457,,,Mackworth_Calibration,99,0.6649999999999999,1,1,0.4421922000183258,,,,,,,Weiyu,3,30,3,12,0.7,0.1
,,,,,,,,,,,86,147284.7492061,,,Mackworth_Calibration,100,0.6649999999999999,0,0,,,,,,,,Weiyu,3,30,3,12,0.7,0.1
,,,,,,,,,,,87,147285.4167309,,,Mackworth_Calibration,101,0.6317499999999999,1,1,0.42282799998065457,,,,,,,Weiyu,3,30,3,12,0.7,0.1
,,,,,,,,,,,88,147286.0800193,,,Mackworth_Calibration,102,0.6317499999999999,0,0,,,,,,,,Weiyu,3,30,3,12,0.7,0.1
,,,,,,,,,,,88,147286.7401361,,,Mackworth_Calibration,103,0.6317499999999999,0,0,,,,,,,,Weiyu,3,30,3,12,0.7,0.1
,,,,,,,,,,,89,147287.3735417,,,Mackworth_Calibration,104,0.6317499999999999,0,0,,,,,,,,Weiyu,3,30,3,12,0.7,0.1
,,,,,,,,,,,90,147288.0438341,,,Mackworth_Calibration,105,0.6317499999999999,1,1,0.36274300000513904,,,,,,,Weiyu,3,30,3,12,0.7,0.1
,,,,,,,,,,,90,147288.6919119,,,Mackworth_Calibration,106,0.6317499999999999,0,0,,,,,,,,Weiyu,3,30,3,12,0.7,0.1
,,,,,,,,,,,91,147289.3435142,,,Mackworth_Calibration,107,0.6317499999999999,0,0,,,,,,,,Weiyu,3,30,3,12,0.7,0.1
,,,,,,,,,,,92,147289.9850832,,,Mackworth_Calibration,108,0.6317499999999999,0,0,,,,,,,,Weiyu,3,30,3,12,0.7,0.1
,,,,,,,,,,,92,147290.6718354,,,Mackworth_Calibration,109,0.6317499999999999,0,0,,,,,,,,Weiyu,3,30,3,12,0.7,0.1
,,,,,,,,,,,93,147291.3390256,,,Mackworth_Calibration,110,0.6317499999999999,0,0,,,,,,,,Weiyu,3,30,3,12,0.7,0.1
,,,,,,,,,,,94,147291.9986233,,,Mackworth_Calibration,111,0.6317499999999999,0,0,,,,,,,,Weiyu,3,30,3,12,0.7,0.1
,,,,,,,,,,,94,147292.6489421,,,Mackworth_Calibration,112,0.6317499999999999,0,0,,,,,,,,Weiyu,3,30,3,12,0.7,0.1
,,,,,,,,,,,95,147293.2830682,,,Mackworth_Calibration,113,0.6317499999999999,0,0,,,,,,,,Weiyu,3,30,3,12,0.7,0.1
,,,,,,,,,,,96,147293.9488272,,,Mackworth_Calibration,114,0.6317499999999999,0,0,,,,,,,,Weiyu,3,30,3,12,0.7,0.1
,,,,,,,,,,,96,147294.5991451,,,Mackworth_Calibration,115,0.6317499999999999,0,0,,,,,,,,Weiyu,3,30,3,12,0.7,0.1
,,,,,,,,,,,97,147295.2563173,,,Mackworth_Calibration,116,0.6317499999999999,0,0,,,,,,,,Weiyu,3,30,3,12,0.7,0.1
,,,,,,,,,,,98,147295.9019274,,,Mackworth_Calibration,117,0.6317499999999999,0,0,,,,,,,,Weiyu,3,30,3,12,0.7,0.1
,,,,,,,,,,,98,147296.5428868,,,Mackworth_Calibration,118,0.6317499999999999,0,0,,,,,,,,Weiyu,3,30,3,12,0.7,0.1
,,,,,,,,,,,99,147297.1760645,,,Mackworth_Calibration,119,0.6317499999999999,0,0,,,,,,,,Weiyu,3,30,3,12,0.7,0.1
,,,,,,,,,,,100,147297.832864,,,Mackworth_Calibration,120,0.6317499999999999,0,0,,,,,,,,Weiyu,3,30,3,12,0.7,0.1
,,,,,,,,,,,100,147298.4424208,,,Mackworth_Calibration,121,0.6001624999999999,0,0,,,,,,,,Weiyu,3,30,3,12,0.7,0.1
,,,,,,,,,,,101,147299.0547365,,,Mackworth_Calibration,122,0.6001624999999999,0,0,,,,,,,,Weiyu,3,30,3,12,0.7,0.1
,,,,,,,,,,,101,147299.6687602,,,Mackworth_Calibration,123,0.6001624999999999,0,0,,,,,,,,Weiyu,3,30,3,12,0.7,0.1
,,,,,,,,,,,102,147300.3016983,,,Mackworth_Calibration,124,0.6001624999999999,0,0,,,,,,,,Weiyu,3,30,3,12,0.7,0.1
,,,,,,,,,,,103,147300.9261204,,,Mackworth_Calibration,125,0.6001624999999999,0,0,,,,,,,,Weiyu,3,30,3,12,0.7,0.1
,,,,,,,,,,,103,147301.5295938,,,Mackworth_Calibration,126,0.6001624999999999,0,0,,,,,,,,Weiyu,3,30,3,12,0.7,0.1
,,,,,,,,,,,104,147302.1371126,,,Mackworth_Calibration,127,0.6001624999999999,0,0,,,,,,,,Weiyu,3,30,3,12,0.7,0.1
,,,,,,,,,,,104,147302.746421,,,Mackworth_Calibration,128,0.6001624999999999,0,0,,,,,,,,Weiyu,3,30,3,12,0.7,0.1
,,,,,,,,,,,105,147303.3786266,,,Mackworth_Calibration,129,0.6001624999999999,0,0,,,,,,,,Weiyu,3,30,3,12,0.7,0.1
,,,,,,,,,,,106,147304.0219081,,,Mackworth_Calibration,130,0.6001624999999999,0,0,,,,,,,,Weiyu,3,30,3,12,0.7,0.1
,,,,,,,,,,,106,147304.6371494,,,Mackworth_Calibration,131,0.6001624999999999,0,0,,,,,,,,Weiyu,3,30,3,12,0.7,0.1
,,,,,,,,,,,107,147305.2472738,,,Mackworth_Calibration,132,0.6001624999999999,0,0,,,,,,,,Weiyu,3,30,3,12,0.7,0.1
,,,,,,,,,,,108,147305.8481067,,,Mackworth_Calibration,133,0.6001624999999999,0,0,,,,,,,,Weiyu,3,30,3,12,0.7,0.1
,,,,,,,,,,,108,147306.4663766,,,Mackworth_Calibration,134,0.6001624999999999,0,0,,,,,,,,Weiyu,3,30,3,12,0.7,0.1
,,,,,,,,,,,109,147307.0992961,,,Mackworth_Calibration,135,0.6001624999999999,0,0,,,,,,,,Weiyu,3,30,3,12,0.7,0.1
,,,,,,,,,,,109,147307.7132757,,,Mackworth_Calibration,136,0.6001624999999999,0,0,,,,,,,,Weiyu,3,30,3,12,0.7,0.1
,,,,,,,,,,,110,147308.3442552,,,Mackworth_Calibration,137,0.6001624999999999,1,1,0.4887159999925643,,,,,,,Weiyu,3,30,3,12,0.7,0.1
,,,,,,,,,,,111,147308.9768741,,,Mackworth_Calibration,138,0.6001624999999999,0,0,,,,,,,,Weiyu,3,30,3,12,0.7,0.1
,,,,,,,,,,,111,147309.5862801,,,Mackworth_Calibration,139,0.6001624999999999,0,0,,,,,,,,Weiyu,3,30,3,12,0.7,0.1
,,,,,,,,,,,112,147310.2021733,,,Mackworth_Calibration,140,0.6001624999999999,0,0,,,,,,,,Weiyu,3,30,3,12,0.7,0.1
,,,,,,,,,,,113,147310.7835359,,,Mackworth_Calibration,141,0.5701543749999999,0,0,,,,,,,,Weiyu,3,30,3,12,0.7,0.1
,,,,,,,,,,,113,147311.4175953,,,Mackworth_Calibration,142,0.5701543749999999,0,0,,,,,,,,Weiyu,3,30,3,12,0.7,0.1
,,,,,,,,,,,114,147312.0008324,,,Mackworth_Calibration,143,0.5701543749999999,0,0,,,,,,,,Weiyu,3,30,3,12,0.7,0.1
,,,,,,,,,,,114,147312.5856135,,,Mackworth_Calibration,144,0.5701543749999999,0,0,,,,,,,,Weiyu,3,30,3,12,0.7,0.1
,,,,,,,,,,,115,147313.1876545,,,Mackworth_Calibration,145,0.5701543749999999,0,0,,,,,,,,Weiyu,3,30,3,12,0.7,0.1
,,,,,,,,,,,116,147313.7701052,,,Mackworth_Calibration,146,0.5701543749999999,0,0,,,,,,,,Weiyu,3,30,3,12,0.7,0.1
,,,,,,,,,,,116,147314.3700208,,,Mackworth_Calibration,147,0.5701543749999999,0,0,,,,,,,,Weiyu,3,30,3,12,0.7,0.1
,,,,,,,,,,,117,147314.9533488,,,Mackworth_Calibration,148,0.5701543749999999,0,0,,,,,,,,Weiyu,3,30,3,12,0.7,0.1
,,,,,,,,,,,117,147315.5532679,,,Mackworth_Calibration,149,0.5701543749999999,0,0,,,,,,,,Weiyu,3,30,3,12,0.7,0.1
,,,,,,,,,,,118,147316.1317774,,,Mackworth_Calibration,150,0.5701543749999999,0,0,,,,,,,,Weiyu,3,30,3,12,0.7,0.1
,,,,,,,,,,,118,147316.7319186,,,Mackworth_Calibration,151,0.5701543749999999,0,0,,,,,,,,Weiyu,3,30,3,12,0.7,0.1
,,,,,,,,,,,119,147317.3311672,,,Mackworth_Calibration,152,0.5701543749999999,0,0,,,,,,,,Weiyu,3,30,3,12,0.7,0.1
,,,,,,,,,,,120,147317.9405443,,,Mackworth_Calibration,153,0.5701543749999999,0,0,,,,,,,,Weiyu,3,30,3,12,0.7,0.1
,,,,,,,,,,,120,147318.5398373,,,Mackworth_Calibration,154,0.5701543749999999,0,0,,,,,,,,Weiyu,3,30,3,12,0.7,0.1
,,,,,,,,,,,121,147319.1394784,,,Mackworth_Calibration,155,0.5701543749999999,0,0,,,,,,,,Weiyu,3,30,3,12,0.7,0.1
,,,,,,,,,,,121,147319.7390087,,,Mackworth_Calibration,156,0.5701543749999999,0,0,,,,,,,,Weiyu,3,30,3,12,0.7,0.1
,,,,,,,,,,,122,147320.3148428,,,Mackworth_Calibration,157,0.5701543749999999,0,0,,,,,,,,Weiyu,3,30,3,12,0.7,0.1
,,,,,,,,,,,123,147320.9064324,,,Mackworth_Calibration,158,0.5701543749999999,0,0,,,,,,,,Weiyu,3,30,3,12,0.7,0.1
,,,,,,,,,,,123,147321.5138913,,,Mackworth_Calibration,159,0.5701543749999999,0,0,,,,,,,,Weiyu,3,30,3,12,0.7,0.1
,,,,,,,,,,,124,147322.096921,,,Mackworth_Calibration,160,0.5701543749999999,0,0,,,,,,,,Weiyu,3,30,3,12,0.7,0.1
,,,,,,,,,,,124,147322.7143531,,,Mackworth_Calibration,161,0.5416466562499999,0,0,,,,,,,,Weiyu,3,30,3,12,0.7,0.1
,,,,,,,,,,,125,147323.2723493,,,Mackworth_Calibration,162,0.5416466562499999,0,0,,,,,,,,Weiyu,3,30,3,12,0.7,0.1
,,,,,,,,,,,126,147323.826932,,,Mackworth_Calibration,163,0.5416466562499999,0,0,,,,,,,,Weiyu,3,30,3,12,0.7,0.1
,,,,,,,,,,,126,147324.393874,,,Mackworth_Calibration,164,0.5416466562499999,0,0,,,,,,,,Weiyu,3,30,3,12,0.7,0.1
,,,,,,,,,,,127,147324.9356837,,,Mackworth_Calibration,165,0.5416466562499999,1,1,0.46748619998106733,,,,,,,Weiyu,3,30,3,12,0.7,0.1
,,,,,,,,,,,127,147325.5079596,,,Mackworth_Calibration,166,0.5416466562499999,0,0,,,,,,,,Weiyu,3,30,3,12,0.7,0.1
,,,,,,,,,,,128,147326.0656849,,,Mackworth_Calibration,167,0.5416466562499999,0,0,,,,,,,,Weiyu,3,30,3,12,0.7,0.1
,,,,,,,,,,,128,147326.6112566,,,Mackworth_Calibration,168,0.5416466562499999,0,0,,,,,,,,Weiyu,3,30,3,12,0.7,0.1
,,,,,,,,,,,129,147327.1607317,,,Mackworth_Calibration,169,0.5416466562499999,0,0,,,,,,,,Weiyu,3,30,3,12,0.7,0.1
,,,,,,,,,,,129,147327.7316497,,,Mackworth_Calibration,170,0.5416466562499999,0,0,,,,,,,,Weiyu,3,30,3,12,0.7,0.1
,,,,,,,,,,,130,147328.30209,,,Mackworth_Calibration,171,0.5416466562499999,0,0,,,,,,,,Weiyu,3,30,3,12,0.7,0.1
,,,,,,,,,,,131,147328.8734322,,,Mackworth_Calibration,172,0.5416466562499999,0,0,,,,,,,,Weiyu,3,30,3,12,0.7,0.1
,,,,,,,,,,,131,147329.472594,,,Mackworth_Calibration,173,0.5416466562499999,0,0,,,,,,,,Weiyu,3,30,3,12,0.7,0.1
,,,,,,,,,,,132,147330.0418663,,,Mackworth_Calibration,174,0.5416466562499999,0,0,,,,,,,,Weiyu,3,30,3,12,0.7,0.1
,,,,,,,,,,,132,147330.5930006,,,Mackworth_Calibration,175,0.5416466562499999,0,0,,,,,,,,Weiyu,3,30,3,12,0.7,0.1
,,,,,,,,,,,133,147331.1669749,,,Mackworth_Calibration,176,0.5416466562499999,0,0,,,,,,,,Weiyu,3,30,3,12,0.7,0.1
,,,,,,,,,,,133,147331.748464,,,Mackworth_Calibration,177,0.5416466562499999,0,0,,,,,,,,Weiyu,3,30,3,12,0.7,0.1
,,,,,,,,,,,134,147332.3147383,,,Mackworth_Calibration,178,0.5416466562499999,0,0,,,,,,,,Weiyu,3,30,3,12,0.7,0.1
,,,,,,,,,,,135,147332.8582361,,,Mackworth_Calibration,179,0.5416466562499999,1,1,0.412845799990464,,,,,,,Weiyu,3,30,3,12,0.7,0.1
,,,,,,,,,,,135,147333.4231868,,,Mackworth_Calibration,180,0.5416466562499999,0,0,,,,,,,,Weiyu,3,30,3,12,0.7,0.1
,,,,,,,,,,,136,147333.9649867,,,Mackworth_Calibration,181,0.5145643234374998,0,0,,,,,,,,Weiyu,3,30,3,12,0.7,0.1
,,,,,,,,,,,136,147334.4881554,,,Mackworth_Calibration,182,0.5145643234374998,0,0,,,,,,,,Weiyu,3,30,3,12,0.7,0.1
,,,,,,,,,,,137,147335.0176533,,,Mackworth_Calibration,183,0.5145643234374998,0,0,,,,,,,,Weiyu,3,30,3,12,0.7,0.1
,,,,,,,,,,,137,147335.5428033,,,Mackworth_Calibration,184,0.5145643234374998,0,0,,,,,,,,Weiyu,3,30,3,12,0.7,0.1
,,,,,,,,,,,138,147336.0681455,,,Mackworth_Calibration,185,0.5145643234374998,0,0,,,,,,,,Weiyu,3,30,3,12,0.7,0.1
,,,,,,,,,,,138,147336.6151162,,,Mackworth_Calibration,186,0.5145643234374998,0,0,,,,,,,,Weiyu,3,30,3,12,0.7,0.1
,,,,,,,,,,,139,147337.1312356,,,Mackworth_Calibration,187,0.5145643234374998,0,0,,,,,,,,Weiyu,3,30,3,12,0.7,0.1
,,,,,,,,,,,139,147337.6484821,,,Mackworth_Calibration,188,0.5145643234374998,0,0,,,,,,,,Weiyu,3,30,3,12,0.7,0.1
,,,,,,,,,,,140,147338.1898187,,,Mackworth_Calibration,189,0.5145643234374998,0,0,,,,,,,,Weiyu,3,30,3,12,0.7,0.1
,,,,,,,,,,,140,147338.731516,,,Mackworth_Calibration,190,0.5145643234374998,0,0,,,,,,,,Weiyu,3,30,3,12,0.7,0.1
,,,,,,,,,,,141,147339.2589574,,,Mackworth_Calibration,191,0.5145643234374998,0,0,,,,,,,,Weiyu,3,30,3,12,0.7,0.1
,,,,,,,,,,,142,147339.7864416,,,Mackworth_Calibration,192,0.5145643234374998,0,0,,,,,,,,Weiyu,3,30,3,12,0.7,0.1
,,,,,,,,,,,142,147340.3114394,,,Mackworth_Calibration,193,0.5145643234374998,0,0,,,,,,,,Weiyu,3,30,3,12,0.7,0.1
,,,,,,,,,,,143,147340.8443334,,,Mackworth_Calibration,194,0.5145643234374998,0,0,,,,,,,,Weiyu,3,30,3,12,0.7,0.1
,,,,,,,,,,,143,147341.3857972,,,Mackworth_Calibration,195,0.5145643234374998,0,0,,,,,,,,Weiyu,3,30,3,12,0.7,0.1
,,,,,,,,,,,144,147341.9027522,,,Mackworth_Calibration,196,0.5145643234374998,0,0,,,,,,,,Weiyu,3,30,3,12,0.7,0.1
,,,,,,,,,,,144,147342.4450281,,,Mackworth_Calibration,197,0.5145643234374998,0,0,,,,,,,,Weiyu,3,30,3,12,0.7,0.1
,,,,,,,,,,,145,147342.9620554,,,Mackworth_Calibration,198,0.5145643234374998,0,0,,,,,,,,Weiyu,3,30,3,12,0.7,0.1
,,,,,,,,,,,145,147343.4803336,,,Mackworth_Calibration,199,0.5145643234374998,0,0,,,,,,,,Weiyu,3,30,3,12,0.7,0.1
,,,,,,,,,,,146,147344.0221296,,,Mackworth_Calibration,200,0.5145643234374998,0,0,,,,,,,,Weiyu,3,30,3,12,0.7,0.1
,,,,,,,,,,,146,147344.5340924,,,Mackworth_Calibration,201,0.48883610726562476,0,0,,,,,,,,Weiyu,3,30,3,12,0.7,0.1
,,,,,,,,,,,147,147345.0451245,,,Mackworth_Calibration,202,0.48883610726562476,0,0,,,,,,,,Weiyu,3,30,3,12,0.7,0.1
,,,,,,,,,,,147,147345.5615104,,,Mackworth_Calibration,203,0.48883610726562476,0,0,,,,,,,,Weiyu,3,30,3,12,0.7,0.1
,,,,,,,,,,,148,147346.0699753,,,Mackworth_Calibration,204,0.48883610726562476,0,0,,,,,,,,Weiyu,3,30,3,12,0.7,0.1
,,,,,,,,,,,148,147346.5694652,,,Mackworth_Calibration,205,0.48883610726562476,0,0,,,,,,,,Weiyu,3,30,3,12,0.7,0.1
,,,,,,,,,,,149,147347.4167889,,,Mackworth_Calibration,206,0.48883610726562476,1,0,,,,,,,,Weiyu,3,30,3,12,0.7,0.1
,,,,,,,,,,,150,147347.9169619,,,Mackworth_Calibration,207,0.48883610726562476,0,0,,,,,,,,Weiyu,3,30,3,12,0.7,0.1
,,,,,,,,,,,150,147348.4354258,,,Mackworth_Calibration,208,0.48883610726562476,0,0,,,,,,,,Weiyu,3,30,3,12,0.7,0.1
,,,,,,,,,,,151,147348.9533147,,,Mackworth_Calibration,209,0.48883610726562476,0,0,,,,,,,,Weiyu,3,30,3,12,0.7,0.1
,,,,,,,,,,,151,147349.4497894,,,Mackworth_Calibration,210,0.48883610726562476,0,0,,,,,,,,Weiyu,3,30,3,12,0.7,0.1
,,,,,,,,,,,152,147349.9662014,,,Mackworth_Calibration,211,0.48883610726562476,0,0,,,,,,,,Weiyu,3,30,3,12,0.7,0.1
,,,,,,,,,,,152,147350.465829,,,Mackworth_Calibration,212,0.48883610726562476,0,0,,,,,,,,Weiyu,3,30,3,12,0.7,0.1
,,,,,,,,,,,153,147350.982459,,,Mackworth_Calibration,213,0.48883610726562476,0,0,,,,,,,,Weiyu,3,30,3,12,0.7,0.1
,,,,,,,,,,,153,147351.4819897,,,Mackworth_Calibration,214,0.48883610726562476,0,0,,,,,,,,Weiyu,3,30,3,12,0.7,0.1
,,,,,,,,,,,154,147351.9960705,,,Mackworth_Calibration,215,0.48883610726562476,0,0,,,,,,,,Weiyu,3,30,3,12,0.7,0.1
,,,,,,,,,,,154,147352.4968793,,,Mackworth_Calibration,216,0.48883610726562476,0,0,,,,,,,,Weiyu,3,30,3,12,0.7,0.1
,,,,,,,,,,,155,147352.9883485,,,Mackworth_Calibration,217,0.48883610726562476,0,0,,,,,,,,Weiyu,3,30,3,12,0.7,0.1
,,,,,,,,,,,155,147353.509506,,,Mackworth_Calibration,218,0.48883610726562476,0,0,,,,,,,,Weiyu,3,30,3,12,0.7,0.1
,,,,,,,,,,,156,147354.0180712,,,Mackworth_Calibration,219,0.48883610726562476,0,0,,,,,,,,Weiyu,3,30,3,12,0.7,0.1
,,,,,,,,,,,156,147354.5598935,,,Mackworth_Calibration,220,0.48883610726562476,0,0,,,,,,,,Weiyu,3,30,3,12,0.7,0.1
,,,,,,,,,,,157,147355.0571779,,,Mackworth_Calibration,221,0.4643943019023435,0,0,,,,,,,,Weiyu,3,30,3,12,0.7,0.1
,,,,,,,,,,,157,147355.5390874,,,Mackworth_Calibration,222,0.4643943019023435,0,0,,,,,,,,Weiyu,3,30,3,12,0.7,0.1
,,,,,,,,,,,158,147356.0083637,,,Mackworth_Calibration,223,0.4643943019023435,0,0,,,,,,,,Weiyu,3,30,3,12,0.7,0.1
,,,,,,,,,,,158,147356.5111462,,,Mackworth_Calibration,224,0.4643943019023435,0,0,,,,,,,,Weiyu,3,30,3,12,0.7,0.1
,,,,,,,,,,,159,147356.993804,,,Mackworth_Calibration,225,0.4643943019023435,0,0,,,,,,,,Weiyu,3,30,3,12,0.7,0.1
,,,,,,,,,,,159,147357.4745575,,,Mackworth_Calibration,226,0.4643943019023435,0,0,,,,,,,,Weiyu,3,30,3,12,0.7,0.1
,,,,,,,,,,,160,147357.9520094,,,Mackworth_Calibration,227,0.4643943019023435,0,0,,,,,,,,Weiyu,3,30,3,12,0.7,0.1
,,,,,,,,,,,160,147358.4182651,,,Mackworth_Calibration,228,0.4643943019023435,0,0,,,,,,,,Weiyu,3,30,3,12,0.7,0.1
,,,,,,,,,,,161,147358.8964338,,,Mackworth_Calibration,229,0.4643943019023435,0,0,,,,,,,,Weiyu,3,30,3,12,0.7,0.1
,,,,,,,,,,,161,147359.3808095,,,Mackworth_Calibration,230,0.4643943019023435,0,0,,,,,,,,Weiyu,3,30,3,12,0.7,0.1
,,,,,,,,,,,162,147359.88331,,,Mackworth_Calibration,231,0.4643943019023435,0,0,,,,,,,,Weiyu,3,30,3,12,0.7,0.1
,,,,,,,,,,,162,147360.4026161,,,Mackworth_Calibration,232,0.4643943019023435,1,1,0.40312239999184385,,,,,,,Weiyu,3,30,3,12,0.7,0.1
,,,,,,,,,,,163,147360.8960062,,,Mackworth_Calibration,233,0.4643943019023435,0,0,,,,,,,,Weiyu,3,30,3,12,0.7,0.1
,,,,,,,,,,,163,147361.7080703,,,Mackworth_Calibration,234,0.5572731622828122,1,0,,,,,,,,Weiyu,3,30,3,12,0.7,0.1
,,,,,,,,,,,164,147362.2695587,,,Mackworth_Calibration,235,0.5572731622828122,0,0,,,,,,,,Weiyu,3,30,3,12,0.7,0.1
,,,,,,,,,,,165,147362.8325355,,,Mackworth_Calibration,236,0.5572731622828122,0,0,,,,,,,,Weiyu,3,30,3,12,0.7,0.1
,,,,,,,,,,,165,147363.4305916,,,Mackworth_Calibration,237,0.5572731622828122,0,0,,,,,,,,Weiyu,3,30,3,12,0.7,0.1
,,,,,,,,,,,166,147364.0663519,,,Mackworth_Calibration,238,0.5572731622828122,0,0,,,,,,,,Weiyu,3,30,3,12,0.7,0.1
,,,,,,,,,,,166,147364.6274622,,,Mackworth_Calibration,239,0.5572731622828122,1,1,0.5602607000037096,,,,,,,Weiyu,3,30,3,12,0.7,0.1
,,,,,,,,,,,167,147365.2042688,,,Mackworth_Calibration,240,0.5572731622828122,0,0,,,,,,,,Weiyu,3,30,3,12,0.7,0.1
,,,,,,,,,,,168,147365.7622691,,,Mackworth_Calibration,241,0.5294095041686716,0,0,,,,,,,,Weiyu,3,30,3,12,0.7,0.1
,,,,,,,,,,,168,147366.3353964,,,Mackworth_Calibration,242,0.5294095041686716,0,0,,,,,,,,Weiyu,3,30,3,12,0.7,0.1
,,,,,,,,,,,169,147366.8852028,,,Mackworth_Calibration,243,0.5294095041686716,0,0,,,,,,,,Weiyu,3,30,3,12,0.7,0.1
,,,,,,,,,,,169,147367.427344,,,Mackworth_Calibration,244,0.5294095041686716,0,0,,,,,,,,Weiyu,3,30,3,12,0.7,0.1
,,,,,,,,,,,170,147367.9862174,,,Mackworth_Calibration,245,0.5294095041686716,0,0,,,,,,,,Weiyu,3,30,3,12,0.7,0.1
,,,,,,,,,,,170,147368.5357144,,,Mackworth_Calibration,246,0.5294095041686716,0,0,,,,,,,,Weiyu,3,30,3,12,0.7,0.1
,,,,,,,,,,,171,147369.0846831,,,Mackworth_Calibration,247,0.5294095041686716,0,0,,,,,,,,Weiyu,3,30,3,12,0.7,0.1
,,,,,,,,,,,171,147369.6426892,,,Mackworth_Calibration,248,0.5294095041686716,0,0,,,,,,,,Weiyu,3,30,3,12,0.7,0.1
,,,,,,,,,,,172,147370.1816886,,,Mackworth_Calibration,249,0.5294095041686716,0,0,,,,,,,,Weiyu,3,30,3,12,0.7,0.1
,,,,,,,,,,,172,147370.7234341,,,Mackworth_Calibration,250,0.5294095041686716,0,0,,,,,,,,Weiyu,3,30,3,12,0.7,0.1
,,,,,,,,,,,173,147371.2570112,,,Mackworth_Calibration,251,0.5294095041686716,0,0,,,,,,,,Weiyu,3,30,3,12,0.7,0.1
,,,,,,,,,,,174,147371.7901271,,,Mackworth_Calibration,252,0.5294095041686716,0,0,,,,,,,,Weiyu,3,30,3,12,0.7,0.1
,,,,,,,,,,,174,147372.3403287,,,Mackworth_Calibration,253,0.5294095041686716,0,0,,,,,,,,Weiyu,3,30,3,12,0.7,0.1
,,,,,,,,,,,175,147372.8912385,,,Mackworth_Calibration,254,0.5294095041686716,1,1,0.38504700001794845,,,,,,,Weiyu,3,30,3,12,0.7,0.1
,,,,,,,,,,,175,147373.4240619,,,Mackworth_Calibration,255,0.5294095041686716,0,0,,,,,,,,Weiyu,3,30,3,12,0.7,0.1
,,,,,,,,,,,176,147373.9829689,,,Mackworth_Calibration,256,0.5294095041686716,0,0,,,,,,,,Weiyu,3,30,3,12,0.7,0.1
,,,,,,,,,,,176,147374.5245676,,,Mackworth_Calibration,257,0.5294095041686716,0,0,,,,,,,,Weiyu,3,30,3,12,0.7,0.1
,,,,,,,,,,,177,147375.0591055,,,Mackworth_Calibration,258,0.5294095041686716,0,0,,,,,,,,Weiyu,3,30,3,12,0.7,0.1
,,,,,,,,,,,177,147375.6037808,,,Mackworth_Calibration,259,0.5294095041686716,0,0,,,,,,,,Weiyu,3,30,3,12,0.7,0.1
,,,,,,,,,,,178,147376.1452566,,,Mackworth_Calibration,260,0.5294095041686716,0,0,,,,,,,,Weiyu,3,30,3,12,0.7,0.1
,,,,,,,,,,,178,147376.6486028,,,Mackworth_Calibration,261,0.502939028960238,0,0,,,,,,,,Weiyu,3,30,3,12,0.7,0.1
,,,,,,,,,,,179,147377.1550928,,,Mackworth_Calibration,262,0.502939028960238,1,1,0.44073530001332983,,,,,,,Weiyu,3,30,3,12,0.7,0.1
,,,,,,,,,,,179,147377.6841914,,,Mackworth_Calibration,263,0.502939028960238,0,0,,,,,,,,Weiyu,3,30,3,12,0.7,0.1
,,,,,,,,,,,180,147378.2078165,,,Mackworth_Calibration,264,0.502939028960238,0,0,,,,,,,,Weiyu,3,30,3,12,0.7,0.1
,,,,,,,,,,,180,147378.724181,,,Mackworth_Calibration,265,0.502939028960238,0,0,,,,,,,,Weiyu,3,30,3,12,0.7,0.1
,,,,,,,,,,,181,147379.2418822,,,Mackworth_Calibration,266,0.502939028960238,0,0,,,,,,,,Weiyu,3,30,3,12,0.7,0.1
,,,,,,,,,,,182,147379.7609997,,,Mackworth_Calibration,267,0.502939028960238,0,0,,,,,,,,Weiyu,3,30,3,12,0.7,0.1
,,,,,,,,,,,182,147380.2855676,,,Mackworth_Calibration,268,0.502939028960238,0,0,,,,,,,,Weiyu,3,30,3,12,0.7,0.1
,,,,,,,,,,,183,147380.7891555,,,Mackworth_Calibration,269,0.502939028960238,0,0,,,,,,,,Weiyu,3,30,3,12,0.7,0.1
,,,,,,,,,,,183,147381.3034547,,,Mackworth_Calibration,270,0.502939028960238,0,0,,,,,,,,Weiyu,3,30,3,12,0.7,0.1
,,,,,,,,,,,184,147381.8242562,,,Mackworth_Calibration,271,0.502939028960238,0,0,,,,,,,,Weiyu,3,30,3,12,0.7,0.1
,,,,,,,,,,,184,147382.3724168,,,Mackworth_Calibration,272,0.502939028960238,0,0,,,,,,,,Weiyu,3,30,3,12,0.7,0.1
,,,,,,,,,,,185,147382.9471165,,,Mackworth_Calibration,273,0.502939028960238,0,0,,,,,,,,Weiyu,3,30,3,12,0.7,0.1
,,,,,,,,,,,185,147383.4903536,,,Mackworth_Calibration,274,0.502939028960238,0,0,,,,,,,,Weiyu,3,30,3,12,0.7,0.1
,,,,,,,,,,,186,147384.4048223,,,Mackworth_Calibration,275,0.502939028960238,0,1,0.5537187000154518,,,,,,,Weiyu,3,30,3,12,0.7,0.1
,,,,,,,,,,,187,147384.9079349,,,Mackworth_Calibration,276,0.502939028960238,0,0,,,,,,,,Weiyu,3,30,3,12,0.7,0.1
,,,,,,,,,,,187,147385.4323944,,,Mackworth_Calibration,277,0.502939028960238,0,0,,,,,,,,Weiyu,3,30,3,12,0.7,0.1
,,,,,,,,,,,188,147385.9491603,,,Mackworth_Calibration,278,0.502939028960238,0,0,,,,,,,,Weiyu,3,30,3,12,0.7,0.1
,,,,,,,,,,,188,147386.4577838,,,Mackworth_Calibration,279,0.502939028960238,0,0,,,,,,,,Weiyu,3,30,3,12,0.7,0.1
,,,,,,,,,,,189,147387.31657,,,Mackworth_Calibration,280,0.502939028960238,1,0,,,,,,,,Weiyu,3,30,3,12,0.7,0.1
,,,,,,,,,,,190,147387.8291036,,,Mackworth_Calibration,281,0.502939028960238,0,1,0.049997300026007,,,,,,,Weiyu,3,30,3,12,0.7,0.1
,,,,,,,,,,,190,147388.3374727,,,Mackworth_Calibration,282,0.502939028960238,0,0,,,,,,,,Weiyu,3,30,3,12,0.7,0.1
,,,,,,,,,,,191,147389.1956263,,,Mackworth_Calibration,283,0.6035268347522856,1,0,,,,,,,,Weiyu,3,30,3,12,0.7,0.1
,,,,,,,,,,,192,147389.8263875,,,Mackworth_Calibration,284,0.6035268347522856,0,0,,,,,,,,Weiyu,3,30,3,12,0.7,0.1
,,,,,,,,,,,192,147390.4617346,,,Mackworth_Calibration,285,0.6035268347522856,0,0,,,,,,,,Weiyu,3,30,3,12,0.7,0.1
,,,,,,,,,,,193,147391.0786482,,,Mackworth_Calibration,286,0.6035268347522856,0,0,,,,,,,,Weiyu,3,30,3,12,0.7,0.1
,,,,,,,,KSS,Post_Calibration,3,201,147398.7800475,,,,,,,,,,,,,,,Weiyu,3,30,3,12,0.7,0.1
,,,,,,,,Stress,Post_Calibration,,202,147399.8728802,2,,,,,,,,,,,,,,Weiyu,3,30,3,12,0.7,0.1
,,,,,,,,Frustration,Post_Calibration,,203,147400.76444,,1,,,,,,,,,,,,,Weiyu,3,30,3,12,0.7,0.1
,,,,,,,,,,,207,147405.1861591,,,Mackworth_Formal,1,0.6035268347522856,0,0,,8,0,1,0,0,0,Weiyu,3,30,3,12,0.7,0.1
,,,,,,,,,,,208,147405.8178733,,,Mackworth_Formal,2,0.6035268347522856,0,0,,8,0,1,0,0,0,Weiyu,3,30,3,12,0.7,0.1
,,,,,,,,,,,208,147406.452357,,,Mackworth_Formal,3,0.6035268347522856,0,0,,8,0,1,0,0,0,Weiyu,3,30,3,12,0.7,0.1
,,,,,,,,,,,209,147407.0965788,,,Mackworth_Formal,4,0.6035268347522856,0,0,,8,0,1,0,0,0,Weiyu,3,30,3,12,0.7,0.1
,,,,,,,,,,,209,147407.7329318,,,Mackworth_Formal,5,0.6035268347522856,0,0,,8,0,1,0,0,0,Weiyu,3,30,3,12,0.7,0.1
,,,,,,,,,,,210,147408.3648548,,,Mackworth_Formal,6,0.6035268347522856,0,0,,8,0,1,0,0,0,Weiyu,3,30,3,12,0.7,0.1
,,,,,,,,,,,211,147408.9981048,,,Mackworth_Formal,7,0.6035268347522856,0,0,,8,0,1,0,0,0,Weiyu,3,30,3,12,0.7,0.1
,,,,,,,,,,,211,147409.6316508,,,Mackworth_Formal,8,0.6035268347522856,0,0,,8,0,1,0,0,0,Weiyu,3,30,3,12,0.7,0.1
,,,,,,,,,,,212,147410.2737445,,,Mackworth_Formal,9,0.6035268347522856,0,0,,8,0,1,0,0,0,Weiyu,3,30,3,12,0.7,0.1
,,,,,,,,,,,213,147410.9083431,,,Mackworth_Formal,10,0.6035268347522856,0,0,,8,0,1,0,0,0,Weiyu,3,30,3,12,0.7,0.1
,,,,,,,,,,,213,147411.5157175,,,Mackworth_Formal,11,0.6035268347522856,0,0,,8,0,1,0,0,0,Weiyu,3,30,3,12,0.7,0.1
,,,,,,,,,,,214,147412.1318574,,,Mackworth_Formal,12,0.6035268347522856,0,0,,8,0,1,0,0,0,Weiyu,3,30,3,12,0.7,0.1
,,,,,,,,,,,215,147412.76517,,,Mackworth_Formal,13,0.6035268347522856,0,0,,8,0,1,0,0,0,Weiyu,3,30,3,12,0.7,0.1
,,,,,,,,,,,215,147413.4035265,,,Mackworth_Formal,14,0.6035268347522856,0,0,,8,0,1,0,0,0,Weiyu,3,30,3,12,0.7,0.1
,,,,,,,,,,,216,147414.0544324,,,Mackworth_Formal,15,0.6035268347522856,0,0,,8,0,1,0,0,0,Weiyu,3,30,3,12,0.7,0.1
,,,,,,,,,,,216,147414.6626687,,,Mackworth_Formal,16,0.6035268347522856,0,0,,8,0,1,0,0,0,Weiyu,3,30,3,12,0.7,0.1
,,,,,,,,,,,217,147415.2954435,,,Mackworth_Formal,17,0.6035268347522856,0,0,,8,0,1,0,0,0,Weiyu,3,30,3,12,0.7,0.1
,,,,,,,,,,,218,147415.9116724,,,Mackworth_Formal,18,0.6035268347522856,1,1,0.4002457999740727,8,0,1,1,0,0,Weiyu,3,30,3,12,0.7,0.1
,,,,,,,,,,,218,147416.5299941,,,Mackworth_Formal,19,0.6035268347522856,0,0,,8,0,1,0,0,0,Weiyu,3,30,3,12,0.7,0.1
,,,,,,,,,,,219,147417.134298,,,Mackworth_Formal,20,0.6035268347522856,0,0,,8,0,1,0,0,0,Weiyu,3,30,3,12,0.7,0.1
,,,,,,,,,,,220,147417.7881853,,,Mackworth_Formal,21,0.6035268347522856,0,0,,8,0,1,0,0,0,Weiyu,3,30,3,12,0.7,0.1
,,,,,,,,,,,220,147418.4208853,,,Mackworth_Formal,22,0.6035268347522856,0,0,,8,0,1,0,0,0,Weiyu,3,30,3,12,0.7,0.1
,,,,,,,,,,,221,147419.0285187,,,Mackworth_Formal,23,0.6035268347522856,0,0,,8,0,1,0,0,0,Weiyu,3,30,3,12,0.7,0.1
,,,,,,,,,,,221,147419.6617115,,,Mackworth_Formal,24,0.6035268347522856,0,0,,8,0,1,0,0,0,Weiyu,3,30,3,12,0.7,0.1
,,,,,,,,,,,222,147420.286636,,,Mackworth_Formal,25,0.6035268347522856,0,0,,8,0,1,0,0,0,Weiyu,3,30,3,12,0.7,0.1
,,,,,,,,,,,223,147420.929849,,,Mackworth_Formal,26,0.6035268347522856,0,0,,8,0,1,0,0,0,Weiyu,3,30,3,12,0.7,0.1
,,,,,,,,,,,223,147421.5462878,,,Mackworth_Formal,27,0.6035268347522856,0,0,,8,0,1,0,0,0,Weiyu,3,30,3,12,0.7,0.1
,,,,,,,,,,,224,147422.1707137,,,Mackworth_Formal,28,0.6035268347522856,0,0,,8,0,1,0,0,0,Weiyu,3,30,3,12,0.7,0.1
,,,,,,,,,,,225,147422.7864852,,,Mackworth_Formal,29,0.6035268347522856,0,0,,8,0,1,0,0,0,Weiyu,3,30,3,12,0.7,0.1
,,,,,,,,,,,225,147423.4128485,,,Mackworth_Formal,30,0.6035268347522856,0,0,,8,0,1,0,0,0,Weiyu,3,30,3,12,0.7,0.1
,,,,,,,,,,,226,147424.0207921,,,Mackworth_Formal,31,0.6035268347522856,0,0,,8,0,1,0,0,0,Weiyu,3,30,3,12,0.7,0.1
,,,,,,,,,,,226,147424.6621431,,,Mackworth_Formal,32,0.6035268347522856,0,0,,8,0,1,0,0,0,Weiyu,3,30,3,12,0.7,0.1
,,,,,,,,,,,227,147425.288756,,,Mackworth_Formal,33,0.6035268347522856,0,0,,8,0,1,0,0,0,Weiyu,3,30,3,12,0.7,0.1
,,,,,,,,,,,228,147425.9043859,,,Mackworth_Formal,34,0.6035268347522856,0,0,,8,0,1,0,0,0,Weiyu,3,30,3,12,0.7,0.1
,,,,,,,,,,,228,147426.5127283,,,Mackworth_Formal,35,0.6035268347522856,0,0,,8,0,1,0,0,0,Weiyu,3,30,3,12,0.7,0.1
,,,,,,,,,,,229,147427.1402158,,,Mackworth_Formal,36,0.6035268347522856,0,0,,8,0,1,0,0,0,Weiyu,3,30,3,12,0.7,0.1
,,,,,,,,,,,230,147427.7819472,,,Mackworth_Formal,37,0.6035268347522856,0,0,,8,0,1,0,0,0,Weiyu,3,30,3,12,0.7,0.1
,,,,,,,,,,,230,147428.4247616,,,Mackworth_Formal,38,0.6035268347522856,0,0,,8,0,1,0,0,0,Weiyu,3,30,3,12,0.7,0.1
,,,,,,,,,,,231,147429.0329361,,,Mackworth_Formal,39,0.6035268347522856,0,0,,8,0,1,0,0,0,Weiyu,3,30,3,12,0.7,0.1
,,,,,,,,,,,231,147429.6398208,,,Mackworth_Formal,40,0.6035268347522856,0,0,,8,0,1,0,0,0,Weiyu,3,30,3,12,0.7,0.1
,,,,,,,,,,,232,147430.2482256,,,Mackworth_Formal,41,0.6035268347522856,0,0,,8,0,1,0,0,0,Weiyu,3,30,3,12,0.7,0.1
,,,,,,,,,,,233,147430.8743269,,,Mackworth_Formal,42,0.6035268347522856,0,0,,8,0,1,0,0,0,Weiyu,3,30,3,12,0.7,0.1
,,,,,,,,,,,233,147431.4994555,,,Mackworth_Formal,43,0.6035268347522856,0,0,,8,0,1,0,0,0,Weiyu,3,30,3,12,0.7,0.1
,,,,,,,,,,,234,147432.1077927,,,Mackworth_Formal,44,0.6035268347522856,0,0,,8,0,1,0,0,0,Weiyu,3,30,3,12,0.7,0.1
,,,,,,,,,,,234,147432.7342045,,,Mackworth_Formal,45,0.6035268347522856,0,0,,8,0,1,0,0,0,Weiyu,3,30,3,12,0.7,0.1
,,,,,,,,,,,235,147433.3599885,,,Mackworth_Formal,46,0.6035268347522856,0,0,,8,0,1,0,0,0,Weiyu,3,30,3,12,0.7,0.1
,,,,,,,,,,,236,147433.9930239,,,Mackworth_Formal,47,0.6035268347522856,0,0,,8,0,1,0,0,0,Weiyu,3,30,3,12,0.7,0.1
,,,,,,,,,,,236,147434.6005423,,,Mackworth_Formal,48,0.6035268347522856,0,0,,8,0,1,0,0,0,Weiyu,3,30,3,12,0.7,0.1
,,,,,,,,,,,237,147435.2260122,,,Mackworth_Formal,49,0.6035268347522856,0,0,,8,0,1,0,0,0,Weiyu,3,30,3,12,0.7,0.1
,,,,,,,,,,,238,147435.8516037,,,Mackworth_Formal,50,0.6035268347522856,0,0,,8,0,1,0,0,0,Weiyu,3,30,3,12,0.7,0.1
,,,,,,,,,,,238,147436.4711973,,,Mackworth_Formal,51,0.6035268347522856,0,0,,8,0,1,0,0,0,Weiyu,3,30,3,12,0.7,0.1
,,,,,,,,,,,239,147437.1014414,,,Mackworth_Formal,52,0.6035268347522856,0,0,,8,0,1,0,0,0,Weiyu,3,30,3,12,0.7,0.1
,,,,,,,,,,,239,147437.7089793,,,Mackworth_Formal,53,0.6035268347522856,0,0,,8,0,1,0,0,0,Weiyu,3,30,3,12,0.7,0.1
,,,,,,,,,,,240,147438.3345573,,,Mackworth_Formal,54,0.6035268347522856,0,0,,8,0,1,0,0,0,Weiyu,3,30,3,12,0.7,0.1
,,,,,,,,,,,241,147438.9597726,,,Mackworth_Formal,55,0.6035268347522856,0,0,,8,0,1,0,0,0,Weiyu,3,30,3,12,0.7,0.1
,,,,,,,,,,,241,147439.5693632,,,Mackworth_Formal,56,0.6035268347522856,0,0,,8,0,1,0,0,0,Weiyu,3,30,3,12,0.7,0.1
,,,,,,,,,,,242,147440.229064,,,Mackworth_Formal,57,0.6035268347522856,0,0,,8,0,1,0,0,0,Weiyu,3,30,3,12,0.7,0.1
,,,,,,,,,,,243,147440.8543114,,,Mackworth_Formal,58,0.6035268347522856,0,0,,8,0,1,0,0,0,Weiyu,3,30,3,12,0.7,0.1
,,,,,,,,,,,243,147441.486502,,,Mackworth_Formal,59,0.6035268347522856,0,0,,8,0,1,0,0,0,Weiyu,3,30,3,12,0.7,0.1
,,,,,,,,,,,244,147442.120795,,,Mackworth_Formal,60,0.6035268347522856,0,0,,8,0,1,0,0,0,Weiyu,3,30,3,12,0.7,0.1
,,,,,,,,,,,244,147442.74536,,,Mackworth_Formal,61,0.6035268347522856,0,0,,8,0,1,0,0,0,Weiyu,3,30,3,12,0.7,0.1
,,,,,,,,,,,245,147443.3758666,,,Mackworth_Formal,62,0.6035268347522856,0,0,,8,0,1,0,0,0,Weiyu,3,30,3,12,0.7,0.1
,,,,,,,,,,,246,147444.0040125,,,Mackworth_Formal,63,0.6035268347522856,0,0,,8,0,1,0,0,0,Weiyu,3,30,3,12,0.7,0.1
,,,,,,,,,,,246,147444.6283618,,,Mackworth_Formal,64,0.6035268347522856,0,0,,8,0,1,0,0,0,Weiyu,3,30,3,12,0.7,0.1
,,,,,,,,,,,247,147445.2369011,,,Mackworth_Formal,65,0.6035268347522856,0,0,,8,0,1,0,0,0,Weiyu,3,30,3,12,0.7,0.1
,,,,,,,,,,,248,147445.8796261,,,Mackworth_Formal,66,0.6035268347522856,1,1,0.4548398999904748,8,0,1,1,0,0,Weiyu,3,30,3,12,0.7,0.1
,,,,,,,,,,,248,147446.501102,,,Mackworth_Formal,67,0.6035268347522856,0,0,,8,0,1,0,0,0,Weiyu,3,30,3,12,0.7,0.1
,,,,,,,,,,,249,147447.125542,,,Mackworth_Formal,68,0.6035268347522856,0,0,,8,0,1,0,0,0,Weiyu,3,30,3,12,0.7,0.1
,,,,,,,,,,,249,147447.7340906,,,Mackworth_Formal,69,0.6035268347522856,0,0,,8,0,1,0,0,0,Weiyu,3,30,3,12,0.7,0.1
,,,,,,,,,,,250,147448.342279,,,Mackworth_Formal,70,0.6035268347522856,0,0,,8,0,1,0,0,0,Weiyu,3,30,3,12,0.7,0.1
,,,,,,,,,,,251,147448.9502734,,,Mackworth_Formal,71,0.6035268347522856,0,0,,8,0,1,0,0,0,Weiyu,3,30,3,12,0.7,0.1
,,,,,,,,,,,251,147449.558812,,,Mackworth_Formal,72,0.6035268347522856,0,0,,8,0,1,0,0,0,Weiyu,3,30,3,12,0.7,0.1
,,,,,,,,,,,252,147450.1857969,,,Mackworth_Formal,73,0.6035268347522856,0,0,,8,0,1,0,0,0,Weiyu,3,30,3,12,0.7,0.1
,,,,,,,,,,,253,147450.8140547,,,Mackworth_Formal,74,0.6035268347522856,0,0,,8,0,1,0,0,0,Weiyu,3,30,3,12,0.7,0.1
,,,,,,,,,,,253,147451.4363516,,,Mackworth_Formal,75,0.6035268347522856,0,0,,8,0,1,0,0,0,Weiyu,3,30,3,12,0.7,0.1
,,,,,,,,,,,254,147452.0503769,,,Mackworth_Formal,76,0.6035268347522856,0,0,,8,0,1,0,0,0,Weiyu,3,30,3,12,0.7,0.1
,,,,,,,,,,,254,147452.6841066,,,Mackworth_Formal,77,0.6035268347522856,0,0,,8,0,1,0,0,0,Weiyu,3,30,3,12,0.7,0.1
,,,,,,,,,,,255,147453.3001453,,,Mackworth_Formal,78,0.6035268347522856,1,1,0.40905789998942055,8,0,1,1,0,0,Weiyu,3,30,3,12,0.7,0.1
,,,,,,,,,,,256,147453.9193586,,,Mackworth_Formal,79,0.6035268347522856,0,0,,8,0,1,0,0,0,Weiyu,3,30,3,12,0.7,0.1
,,,,,,,,,,,256,147454.5451116,,,Mackworth_Formal,80,0.6035268347522856,0,0,,8,0,1,0,0,0,Weiyu,3,30,3,12,0.7,0.1
,,,,,,,,,,,257,147455.2034869,,,Mackworth_Formal,81,0.6035268347522856,0,0,,8,0,1,0,0,0,Weiyu,3,30,3,12,0.7,0.1
,,,,,,,,,,,258,147455.8206768,,,Mackworth_Formal,82,0.6035268347522856,0,0,,8,0,1,0,0,0,Weiyu,3,30,3,12,0.7,0.1
,,,,,,,,,,,258,147456.4297271,,,Mackworth_Formal,83,0.6035268347522856,1,1,0.5679523999860976,8,0,1,1,0,0,Weiyu,3,30,3,12,0.7,0.1
,,,,,,,,,,,259,147457.0384434,,,Mackworth_Formal,84,0.6035268347522856,0,0,,8,0,1,0,0,0,Weiyu,3,30,3,12,0.7,0.1
,,,,,,,,,,,259,147457.6728231,,,Mackworth_Formal,85,0.6035268347522856,0,0,,8,0,1,0,0,0,Weiyu,3,30,3,12,0.7,0.1
,,,,,,,,,,,260,147458.2889129,,,Mackworth_Formal,86,0.6035268347522856,0,0,,8,0,1,0,0,0,Weiyu,3,30,3,12,0.7,0.1
,,,,,,,,,,,261,147458.8977416,,,Mackworth_Formal,87,0.6035268347522856,0,0,,8,0,1,0,0,0,Weiyu,3,30,3,12,0.7,0.1
,,,,,,,,,,,261,147459.5070608,,,Mackworth_Formal,88,0.6035268347522856,0,0,,8,0,1,0,0,0,Weiyu,3,30,3,12,0.7,0.1
,,,,,,,,,,,262,147460.1399272,,,Mackworth_Formal,89,0.6035268347522856,0,0,,8,0,1,0,0,0,Weiyu,3,30,3,12,0.7,0.1
,,,,,,,,,,,263,147460.7687867,,,Mackworth_Formal,90,0.6035268347522856,0,0,,8,0,1,0,0,0,Weiyu,3,30,3,12,0.7,0.1
,,,,,,,,,,,263,147461.3927397,,,Mackworth_Formal,91,0.6035268347522856,0,0,,8,0,1,0,0,0,Weiyu,3,30,3,12,0.7,0.1
,,,,,,,,,,,264,147462.0263838,,,Mackworth_Formal,92,0.6035268347522856,0,0,,8,0,1,0,0,0,Weiyu,3,30,3,12,0.7,0.1
,,,,,,,,,,,264,147462.6503235,,,Mackworth_Formal,93,0.6035268347522856,0,0,,8,0,1,0,0,0,Weiyu,3,30,3,12,0.7,0.1
,,,,,,,,,,,265,147463.27526,,,Mackworth_Formal,94,0.6035268347522856,0,0,,8,0,1,0,0,0,Weiyu,3,30,3,12,0.7,0.1
,,,,,,,,,,,266,147463.90082,,,Mackworth_Formal,95,0.6035268347522856,0,0,,8,0,1,0,0,0,Weiyu,3,30,3,12,0.7,0.1
,,,,,,,,,,,266,147464.5263728,,,Mackworth_Formal,96,0.6035268347522856,0,0,,8,0,1,0,0,0,Weiyu,3,30,3,12,0.7,0.1
,,,,,,,,,,,267,147465.1337975,,,Mackworth_Formal,97,0.6035268347522856,0,0,,8,0,1,0,0,0,Weiyu,3,30,3,12,0.7,0.1
,,,,,,,,,,,268,147465.7600009,,,Mackworth_Formal,98,0.6035268347522856,0,0,,8,0,1,0,0,0,Weiyu,3,30,3,12,0.7,0.1
,,,,,,,,,,,268,147466.3856192,,,Mackworth_Formal,99,0.6035268347522856,0,0,,8,0,1,0,0,0,Weiyu,3,30,3,12,0.7,0.1
,,,,,,,,,,,269,147467.0177434,,,Mackworth_Formal,100,0.6035268347522856,0,0,,8,0,1,0,0,0,Weiyu,3,30,3,12,0.7,0.1
,,,,,,,,,,,269,147467.634054,,,Mackworth_Formal,101,0.6035268347522856,0,0,,8,0,1,0,0,0,Weiyu,3,30,3,12,0.7,0.1
,,,,,,,,,,,270,147468.2504669,,,Mackworth_Formal,102,0.6035268347522856,0,0,,8,0,1,0,0,0,Weiyu,3,30,3,12,0.7,0.1
,,,,,,,,,,,271,147468.859613,,,Mackworth_Formal,103,0.6035268347522856,0,0,,8,0,1,0,0,0,Weiyu,3,30,3,12,0.7,0.1
,,,,,,,,,,,271,147469.4674837,,,Mackworth_Formal,104,0.6035268347522856,0,0,,8,0,1,0,0,0,Weiyu,3,30,3,12,0.7,0.1
,,,,,,,,,,,272,147470.1103137,,,Mackworth_Formal,105,0.6035268347522856,0,0,,8,0,1,0,0,0,Weiyu,3,30,3,12,0.7,0.1
,,,,,,,,,,,273,147470.7638435,,,Mackworth_Formal,106,0.6035268347522856,0,0,,8,0,1,0,0,0,Weiyu,3,30,3,12,0.7,0.1
,,,,,,,,,,,273,147471.3953514,,,Mackworth_Formal,107,0.6035268347522856,0,0,,8,0,1,0,0,0,Weiyu,3,30,3,12,0.7,0.1
,,,,,,,,,,,274,147472.0032102,,,Mackworth_Formal,108,0.6035268347522856,1,1,0.5095635000034235,8,0,1,1,0,0,Weiyu,3,30,3,12,0.7,0.1
,,,,,,,,,,,274,147472.6285565,,,Mackworth_Formal,109,0.6035268347522856,0,0,,8,0,1,0,0,0,Weiyu,3,30,3,12,0.7,0.1
,,,,,,,,,,,275,147473.2370566,,,Mackworth_Formal,110,0.6035268347522856,0,0,,8,0,1,0,0,0,Weiyu,3,30,3,12,0.7,0.1
,,,,,,,,,,,276,147473.8714303,,,Mackworth_Formal,111,0.6035268347522856,1,1,0.3911227000062354,8,0,1,1,0,0,Weiyu,3,30,3,12,0.7,0.1
,,,,,,,,,,,276,147474.5206331,,,Mackworth_Formal,112,0.6035268347522856,0,0,,8,0,1,0,0,0,Weiyu,3,30,3,12,0.7,0.1
,,,,,,,,,,,277,147475.1634068,,,Mackworth_Formal,113,0.6035268347522856,0,0,,8,0,1,0,0,0,Weiyu,3,30,3,12,0.7,0.1
,,,,,,,,,,,278,147475.7708719,,,Mackworth_Formal,114,0.6035268347522856,0,0,,8,0,1,0,0,0,Weiyu,3,30,3,12,0.7,0.1
,,,,,,,,,,,278,147476.3874169,,,Mackworth_Formal,115,0.6035268347522856,0,0,,8,0,1,0,0,0,Weiyu,3,30,3,12,0.7,0.1
,,,,,,,,,,,279,147477.0004623,,,Mackworth_Formal,116,0.6035268347522856,0,0,,8,0,1,0,0,0,Weiyu,3,30,3,12,0.7,0.1
,,,,,,,,,,,279,147477.6286651,,,Mackworth_Formal,117,0.6035268347522856,0,0,,8,0,1,0,0,0,Weiyu,3,30,3,12,0.7,0.1
,,,,,,,,,,,280,147478.2559057,,,Mackworth_Formal,118,0.6035268347522856,0,0,,8,0,1,0,0,0,Weiyu,3,30,3,12,0.7,0.1
,,,,,,,,,,,281,147478.8786208,,,Mackworth_Formal,119,0.6035268347522856,0,0,,8,0,1,0,0,0,Weiyu,3,30,3,12,0.7,0.1
,,,,,,,,,,,281,147479.4872696,,,Mackworth_Formal,120,0.6035268347522856,0,0,,8,0,1,0,0,0,Weiyu,3,30,3,12,0.7,0.1
,,,,,,,,,,,282,147480.1202894,,,Mackworth_Formal,121,0.6035268347522856,0,0,,8,0,1,0,0,0,Weiyu,3,30,3,12,0.7,0.1
,,,,,,,,,,,282,147480.7446777,,,Mackworth_Formal,122,0.6035268347522856,0,0,,8,0,1,0,0,0,Weiyu,3,30,3,12,0.7,0.1
,,,,,,,,,,,283,147481.3695199,,,Mackworth_Formal,123,0.6035268347522856,1,1,0.3929148000024725,8,0,1,1,0,0,Weiyu,3,30,3,12,0.7,0.1
,,,,,,,,,,,284,147481.9878119,,,Mackworth_Formal,124,0.6035268347522856,1,1,0.5210034000047017,8,0,1,1,0,0,Weiyu,3,30,3,12,0.7,0.1
,,,,,,,,,,,284,147482.6033256,,,Mackworth_Formal,125,0.6035268347522856,0,0,,8,0,1,0,0,0,Weiyu,3,30,3,12,0.7,0.1
,,,,,,,,,,,285,147483.2202049,,,Mackworth_Formal,126,0.6035268347522856,0,0,,8,0,1,0,0,0,Weiyu,3,30,3,12,0.7,0.1
,,,,,,,,,,,286,147483.8533479,,,Mackworth_Formal,127,0.6035268347522856,0,0,,8,0,1,0,0,0,Weiyu,3,30,3,12,0.7,0.1
,,,,,,,,,,,286,147484.476424,,,Mackworth_Formal,128,0.6035268347522856,0,0,,8,0,1,0,0,0,Weiyu,3,30,3,12,0.7,0.1
,,,,,,,,,,,287,147485.1050957,,,Mackworth_Formal,129,0.6035268347522856,0,0,,8,0,1,0,0,0,Weiyu,3,30,3,12,0.7,0.1
,,,,,,,,,,,287,147485.7331198,,,Mackworth_Formal,130,0.6035268347522856,1,1,0.5957354999845847,8,0,1,1,0,0,Weiyu,3,30,3,12,0.7,0.1
,,,,,,,,,,,288,147486.3401054,,,Mackworth_Formal,131,0.6035268347522856,0,0,,8,0,1,0,0,0,Weiyu,3,30,3,12,0.7,0.1
,,,,,,,,,,,289,147486.9655307,,,Mackworth_Formal,132,0.6035268347522856,1,1,0.4069617999775801,8,0,1,1,0,0,Weiyu,3,30,3,12,0.7,0.1
,,,,,,,,,,,289,147487.5750553,,,Mackworth_Formal,133,0.6035268347522856,0,0,,8,0,1,0,0,0,Weiyu,3,30,3,12,0.7,0.1
,,,,,,,,,,,290,147488.223835,,,Mackworth_Formal,134,0.6035268347522856,0,0,,8,0,1,0,0,0,Weiyu,3,30,3,12,0.7,0.1
,,,,,,,,,,,291,147488.8589916,,,Mackworth_Formal,135,0.6035268347522856,0,0,,8,0,1,0,0,0,Weiyu,3,30,3,12,0.7,0.1
,,,,,,,,,,,291,147489.4900913,,,Mackworth_Formal,136,0.6035268347522856,0,0,,8,0,1,0,0,0,Weiyu,3,30,3,12,0.7,0.1
,,,,,,,,,,,292,147490.0991544,,,Mackworth_Formal,137,0.6035268347522856,0,0,,8,0,1,0,0,0,Weiyu,3,30,3,12,0.7,0.1
,,,,,,,,,,,292,147490.7320105,,,Mackworth_Formal,138,0.6035268347522856,0,0,,8,0,1,0,0,0,Weiyu,3,30,3,12,0.7,0.1
,,,,,,,,,,,293,147491.3487151,,,Mackworth_Formal,139,0.6035268347522856,0,0,,8,0,1,0,0,0,Weiyu,3,30,3,12,0.7,0.1
,,,,,,,,,,,294,147491.983031,,,Mackworth_Formal,140,0.6035268347522856,0,0,,8,0,1,0,0,0,Weiyu,3,30,3,12,0.7,0.1
,,,,,,,,,,,294,147492.5990831,,,Mackworth_Formal,141,0.6035268347522856,0,0,,8,0,1,0,0,0,Weiyu,3,30,3,12,0.7,0.1
,,,,,,,,,,,295,147493.2190635,,,Mackworth_Formal,142,0.6035268347522856,0,0,,8,0,1,0,0,0,Weiyu,3,30,3,12,0.7,0.1
,,,,,,,,,,,296,147493.8852996,,,Mackworth_Formal,143,0.6035268347522856,0,0,,8,0,1,0,0,0,Weiyu,3,30,3,12,0.7,0.1
,,,,,,,,,,,296,147494.5269103,,,Mackworth_Formal,144,0.6035268347522856,0,0,,8,0,1,0,0,0,Weiyu,3,30,3,12,0.7,0.1
,,,,,,,,,,,297,147495.1346492,,,Mackworth_Formal,145,0.6035268347522856,0,0,,8,0,1,0,0,0,Weiyu,3,30,3,12,0.7,0.1
,,,,,,,,,,,297,147495.7431856,,,Mackworth_Formal,146,0.6035268347522856,0,0,,8,0,1,0,0,0,Weiyu,3,30,3,12,0.7,0.1
,,,,,,,,,,,298,147496.3676845,,,Mackworth_Formal,147,0.6035268347522856,0,0,,8,0,1,0,0,0,Weiyu,3,30,3,12,0.7,0.1
,,,,,,,,,,,299,147496.9846108,,,Mackworth_Formal,148,0.6035268347522856,0,0,,8,0,1,0,0,0,Weiyu,3,30,3,12,0.7,0.1
,,,,,,,,,,,299,147497.5949372,,,Mackworth_Formal,149,0.6035268347522856,0,0,,8,0,1,0,0,0,Weiyu,3,30,3,12,0.7,0.1
,,,,,,,,,,,300,147498.2110486,,,Mackworth_Formal,150,0.6035268347522856,0,0,,8,0,1,0,0,0,Weiyu,3,30,3,12,0.7,0.1
,,,,,,,,,,,301,147498.8265737,,,Mackworth_Formal,151,0.6035268347522856,0,0,,8,0,1,0,0,0,Weiyu,3,30,3,12,0.7,0.1
,,,,,,,,,,,301,147499.4524164,,,Mackworth_Formal,152,0.6035268347522856,0,0,,8,0,1,0,0,0,Weiyu,3,30,3,12,0.7,0.1
,,,,,,,,,,,302,147500.0845749,,,Mackworth_Formal,153,0.6035268347522856,0,0,,8,0,1,0,0,0,Weiyu,3,30,3,12,0.7,0.1
,,,,,,,,,,,302,147500.6923699,,,Mackworth_Formal,154,0.6035268347522856,0,0,,8,0,1,0,0,0,Weiyu,3,30,3,12,0.7,0.1
,,,,,,,,,,,303,147501.3010348,,,Mackworth_Formal,155,0.6035268347522856,0,0,,8,0,1,0,0,0,Weiyu,3,30,3,12,0.7,0.1
,,,,,,,,,,,304,147501.9270905,,,Mackworth_Formal,156,0.6035268347522856,0,0,,8,0,1,0,0,0,Weiyu,3,30,3,12,0.7,0.1
,,,,,,,,,,,304,147502.5612615,,,Mackworth_Formal,157,0.6035268347522856,0,0,,8,0,1,0,0,0,Weiyu,3,30,3,12,0.7,0.1
,,,,,,,,,,,305,147503.1740068,,,Mackworth_Formal,158,0.6035268347522856,0,0,,8,0,1,0,0,0,Weiyu,3,30,3,12,0.7,0.1
,,,,,,,,,,,306,147503.8077034,,,Mackworth_Formal,159,0.6035268347522856,0,0,,8,0,1,0,0,0,Weiyu,3,30,3,12,0.7,0.1
,,,,,,,,,,,306,147504.4145104,,,Mackworth_Formal,160,0.6035268347522856,0,0,,8,0,1,0,0,0,Weiyu,3,30,3,12,0.7,0.1
,,,,,,,,,,,307,147505.0394694,,,Mackworth_Formal,161,0.6035268347522856,0,0,,8,0,1,0,0,0,Weiyu,3,30,3,12,0.7,0.1
,,,,,,,,,,,307,147505.6516096,,,Mackworth_Formal,162,0.6035268347522856,0,0,,8,0,1,0,0,0,Weiyu,3,30,3,12,0.7,0.1
,,,,,,,,,,,308,147506.2651169,,,Mackworth_Formal,163,0.6035268347522856,0,0,,8,0,1,0,0,0,Weiyu,3,30,3,12,0.7,0.1
,,,,,,,,,,,309,147506.8901868,,,Mackworth_Formal,164,0.6035268347522856,0,0,,8,0,1,0,0,0,Weiyu,3,30,3,12,0.7,0.1
,,,,,,,,,,,309,147507.5311987,,,Mackworth_Formal,165,0.6035268347522856,0,0,,8,0,1,0,0,0,Weiyu,3,30,3,12,0.7,0.1
,,,,,,,,,,,310,147508.1652391,,,Mackworth_Formal,166,0.6035268347522856,1,1,0.5033746000262909,8,0,1,1,0,0,Weiyu,3,30,3,12,0.7,0.1
,,,,,,,,,,,311,147508.7734051,,,Mackworth_Formal,167,0.6035268347522856,0,0,,8,0,1,0,0,0,Weiyu,3,30,3,12,0.7,0.1
,,,,,,,,,,,311,147509.3903248,,,Mackworth_Formal,168,0.6035268347522856,0,0,,8,0,1,0,0,0,Weiyu,3,30,3,12,0.7,0.1
,,,,,,,,,,,312,147510.0055906,,,Mackworth_Formal,169,0.6035268347522856,0,0,,8,0,1,0,0,0,Weiyu,3,30,3,12,0.7,0.1
,,,,,,,,,,,312,147510.6493959,,,Mackworth_Formal,170,0.6035268347522856,0,0,,8,0,1,0,0,0,Weiyu,3,30,3,12,0.7,0.1
,,,,,,,,,,,313,147511.2902153,,,Mackworth_Formal,171,0.6035268347522856,0,0,,8,0,1,0,0,0,Weiyu,3,30,3,12,0.7,0.1
,,,,,,,,,,,314,147511.9101005,,,Mackworth_Formal,172,0.6035268347522856,0,0,,8,0,1,0,0,0,Weiyu,3,30,3,12,0.7,0.1
,,,,,,,,,,,314,147512.5347806,,,Mackworth_Formal,173,0.6035268347522856,0,0,,8,0,1,0,0,0,Weiyu,3,30,3,12,0.7,0.1
,,,,,,,,,,,315,147513.1588057,,,Mackworth_Formal,174,0.6035268347522856,0,0,,8,0,1,0,0,0,Weiyu,3,30,3,12,0.7,0.1
,,,,,,,,,,,316,147513.7922635,,,Mackworth_Formal,175,0.6035268347522856,0,0,,8,0,1,0,0,0,Weiyu,3,30,3,12,0.7,0.1
,,,,,,,,,,,316,147514.4171566,,,Mackworth_Formal,176,0.6035268347522856,0,0,,8,0,1,0,0,0,Weiyu,3,30,3,12,0.7,0.1
,,,,,,,,,,,317,147515.0512453,,,Mackworth_Formal,177,0.6035268347522856,0,0,,8,0,1,0,0,0,Weiyu,3,30,3,12,0.7,0.1
,,,,,,,,,,,317,147515.6924391,,,Mackworth_Formal,178,0.6035268347522856,0,0,,8,0,1,0,0,0,Weiyu,3,30,3,12,0.7,0.1
,,,,,,,,,,,318,147516.3534876,,,Mackworth_Formal,179,0.6035268347522856,0,0,,8,0,1,0,0,0,Weiyu,3,30,3,12,0.7,0.1
,,,,,,,,,,,319,147516.9844305,,,Mackworth_Formal,180,0.6035268347522856,0,0,,8,0,1,0,0,0,Weiyu,3,30,3,12,0.7,0.1
,,,,,,,,,,,319,147517.6005849,,,Mackworth_Formal,181,0.6035268347522856,0,0,,8,0,1,0,0,0,Weiyu,3,30,3,12,0.7,0.1
,,,,,,,,,,,320,147518.2087302,,,Mackworth_Formal,182,0.6035268347522856,0,0,,8,0,1,0,0,0,Weiyu,3,30,3,12,0.7,0.1
,,,,,,,,,,,321,147518.8436383,,,Mackworth_Formal,183,0.6035268347522856,0,0,,8,0,1,0,0,0,Weiyu,3,30,3,12,0.7,0.1
,,,,,,,,,,,321,147519.4682376,,,Mackworth_Formal,184,0.6035268347522856,1,1,0.5416741000080947,8,0,1,1,0,0,Weiyu,3,30,3,12,0.7,0.1
,,,,,,,,,,,322,147520.0921217,,,Mackworth_Formal,185,0.6035268347522856,0,0,,8,0,1,0,0,0,Weiyu,3,30,3,12,0.7,0.1
,,,,,,,,,,,322,147520.703038,,,Mackworth_Formal,186,0.6035268347522856,0,0,,8,0,1,0,0,0,Weiyu,3,30,3,12,0.7,0.1
,,,,,,,,,,,323,147521.3107609,,,Mackworth_Formal,187,0.6035268347522856,0,0,,8,0,1,0,0,0,Weiyu,3,30,3,12,0.7,0.1
,,,,,,,,,,,324,147521.9174524,,,Mackworth_Formal,188,0.6035268347522856,0,0,,8,0,1,0,0,0,Weiyu,3,30,3,12,0.7,0.1
,,,,,,,,,,,324,147522.5509398,,,Mackworth_Formal,189,0.6035268347522856,0,0,,8,0,1,0,0,0,Weiyu,3,30,3,12,0.7,0.1
,,,,,,,,,,,325,147523.178853,,,Mackworth_Formal,190,0.6035268347522856,0,0,,8,0,1,0,0,0,Weiyu,3,30,3,12,0.7,0.1
,,,,,,,,,,,326,147523.8050018,,,Mackworth_Formal,191,0.6035268347522856,0,0,,8,0,1,0,0,0,Weiyu,3,30,3,12,0.7,0.1
,,,,,,,,,,,326,147524.4345546,,,Mackworth_Formal,192,0.6035268347522856,0,0,,8,0,1,0,0,0,Weiyu,3,30,3,12,0.7,0.1
,,,,,,,,,,,327,147525.0693637,,,Mackworth_Formal,193,0.6035268347522856,0,0,,8,0,1,0,0,0,Weiyu,3,30,3,12,0.7,0.1
,,,,,,,,,,,327,147525.6771336,,,Mackworth_Formal,194,0.6035268347522856,0,0,,8,0,1,0,0,0,Weiyu,3,30,3,12,0.7,0.1
,,,,,,,,,,,328,147526.2847096,,,Mackworth_Formal,195,0.6035268347522856,0,0,,8,0,1,0,0,0,Weiyu,3,30,3,12,0.7,0.1
,,,,,,,,,,,329,147526.8929084,,,Mackworth_Formal,196,0.6035268347522856,0,0,,8,0,1,0,0,0,Weiyu,3,30,3,12,0.7,0.1
,,,,,,,,,,,329,147527.5133099,,,Mackworth_Formal,197,0.6035268347522856,0,0,,8,0,1,0,0,0,Weiyu,3,30,3,12,0.7,0.1
,,,,,,,,,,,330,147528.1466267,,,Mackworth_Formal,198,0.6035268347522856,0,0,,8,0,1,0,0,0,Weiyu,3,30,3,12,0.7,0.1
,,,,,,,,,,,331,147528.7803293,,,Mackworth_Formal,199,0.6035268347522856,0,0,,8,0,1,0,0,0,Weiyu,3,30,3,12,0.7,0.1
,,,,,,,,,,,331,147529.3880957,,,Mackworth_Formal,200,0.6035268347522856,1,1,0.5101980000035837,8,0,1,1,0,0,Weiyu,3,30,3,12,0.7,0.1
,,,,,,,,,,,332,147529.9967276,,,Mackworth_Formal,201,0.6035268347522856,0,0,,8,0,1,0,0,0,Weiyu,3,30,3,12,0.7,0.1
,,,,,,,,,,,332,147530.6323217,,,Mackworth_Formal,202,0.6035268347522856,0,0,,8,0,1,0,0,0,Weiyu,3,30,3,12,0.7,0.1
,,,,,,,,,,,333,147531.2738557,,,Mackworth_Formal,203,0.6035268347522856,0,0,,8,0,1,0,0,0,Weiyu,3,30,3,12,0.7,0.1
,,,,,,,,,,,334,147531.9073198,,,Mackworth_Formal,204,0.6035268347522856,0,0,,8,0,1,0,0,0,Weiyu,3,30,3,12,0.7,0.1
,,,,,,,,,,,334,147532.5241682,,,Mackworth_Formal,205,0.6035268347522856,0,0,,8,0,1,0,0,0,Weiyu,3,30,3,12,0.7,0.1
,,,,,,,,,,,335,147533.1572065,,,Mackworth_Formal,206,0.6035268347522856,0,0,,8,0,1,0,0,0,Weiyu,3,30,3,12,0.7,0.1
,,,,,,,,,,,336,147533.765381,,,Mackworth_Formal,207,0.6035268347522856,0,0,,8,0,1,0,0,0,Weiyu,3,30,3,12,0.7,0.1
,,,,,,,,,,,336,147534.3989957,,,Mackworth_Formal,208,0.6035268347522856,0,0,,8,0,1,0,0,0,Weiyu,3,30,3,12,0.7,0.1
,,,,,,,,,,,337,147535.0167069,,,Mackworth_Formal,209,0.6035268347522856,0,0,,8,0,1,0,0,0,Weiyu,3,30,3,12,0.7,0.1
,,,,,,,,,,,337,147535.6657612,,,Mackworth_Formal,210,0.6035268347522856,0,0,,8,0,1,0,0,0,Weiyu,3,30,3,12,0.7,0.1
,,,,,,,,,,,338,147536.2908639,,,Mackworth_Formal,211,0.6035268347522856,0,0,,8,0,1,0,0,0,Weiyu,3,30,3,12,0.7,0.1
,,,,,,,,,,,339,147536.9166238,,,Mackworth_Formal,212,0.6035268347522856,0,0,,8,0,1,0,0,0,Weiyu,3,30,3,12,0.7,0.1
,,,,,,,,,,,339,147537.540918,,,Mackworth_Formal,213,0.6035268347522856,0,0,,8,0,1,0,0,0,Weiyu,3,30,3,12,0.7,0.1
,,,,,,,,,,,340,147538.1493724,,,Mackworth_Formal,214,0.6035268347522856,0,0,,8,0,1,0,0,0,Weiyu,3,30,3,12,0.7,0.1
,,,,,,,,,,,341,147538.7827049,,,Mackworth_Formal,215,0.6035268347522856,0,0,,8,0,1,0,0,0,Weiyu,3,30,3,12,0.7,0.1
,,,,,,,,,,,341,147539.415744,,,Mackworth_Formal,216,0.6035268347522856,0,0,,8,0,1,0,0,0,Weiyu,3,30,3,12,0.7,0.1
,,,,,,,,,,,342,147540.0250948,,,Mackworth_Formal,217,0.6035268347522856,0,0,,8,0,1,0,0,0,Weiyu,3,30,3,12,0.7,0.1
,,,,,,,,,,,342,147540.6384483,,,Mackworth_Formal,218,0.6035268347522856,0,0,,8,0,1,0,0,0,Weiyu,3,30,3,12,0.7,0.1
,,,,,,,,,,,343,147541.2607403,,,Mackworth_Formal,219,0.6035268347522856,0,0,,8,0,1,0,0,0,Weiyu,3,30,3,12,0.7,0.1
,,,,,,,,,,,344,147541.8771182,,,Mackworth_Formal,220,0.6035268347522856,0,0,,8,0,1,0,0,0,Weiyu,3,30,3,12,0.7,0.1
,,,,,,,,,,,344,147542.5063519,,,Mackworth_Formal,221,0.6035268347522856,0,0,,8,0,1,0,0,0,Weiyu,3,30,3,12,0.7,0.1
,,,,,,,,,,,345,147543.1273609,,,Mackworth_Formal,222,0.6035268347522856,0,0,,8,0,1,0,0,0,Weiyu,3,30,3,12,0.7,0.1
,,,,,,,,,,,346,147543.7603491,,,Mackworth_Formal,223,0.6035268347522856,0,0,,8,0,1,0,0,0,Weiyu,3,30,3,12,0.7,0.1
,,,,,,,,,,,346,147544.3928659,,,Mackworth_Formal,224,0.6035268347522856,0,0,,8,0,1,0,0,0,Weiyu,3,30,3,12,0.7,0.1
,,,,,,,,,,,347,147545.0015249,,,Mackworth_Formal,225,0.6035268347522856,0,0,,8,0,1,0,0,0,Weiyu,3,30,3,12,0.7,0.1
,,,,,,,,,,,347,147545.6142076,,,Mackworth_Formal,226,0.6035268347522856,0,0,,8,0,1,0,0,0,Weiyu,3,30,3,12,0.7,0.1
,,,,,,,,,,,348,147546.2430149,,,Mackworth_Formal,227,0.6035268347522856,0,0,,8,0,1,0,0,0,Weiyu,3,30,3,12,0.7,0.1
,,,,,,,,,,,349,147546.8853441,,,Mackworth_Formal,228,0.6035268347522856,0,0,,8,0,1,0,0,0,Weiyu,3,30,3,12,0.7,0.1
,,,,,,,,,,,349,147547.4940985,,,Mackworth_Formal,229,0.6035268347522856,0,0,,8,0,1,0,0,0,Weiyu,3,30,3,12,0.7,0.1
,,,,,,,,,,,350,147548.1100041,,,Mackworth_Formal,230,0.6035268347522856,0,0,,8,0,1,0,0,0,Weiyu,3,30,3,12,0.7,0.1
,,,,,,,,,,,350,147548.7362642,,,Mackworth_Formal,231,0.6035268347522856,0,0,,8,0,1,0,0,0,Weiyu,3,30,3,12,0.7,0.1
,,,,,,,,,,,351,147549.3548108,,,Mackworth_Formal,232,0.6035268347522856,0,0,,8,0,1,0,0,0,Weiyu,3,30,3,12,0.7,0.1
,,,,,,,,,,,352,147549.971649,,,Mackworth_Formal,233,0.6035268347522856,0,0,,8,0,1,0,0,0,Weiyu,3,30,3,12,0.7,0.1
,,,,,,,,,,,352,147550.5886673,,,Mackworth_Formal,234,0.6035268347522856,0,0,,8,0,1,0,0,0,Weiyu,3,30,3,12,0.7,0.1
,,,,,,,,,,,353,147551.2223362,,,Mackworth_Formal,235,0.6035268347522856,0,0,,8,0,1,0,0,0,Weiyu,3,30,3,12,0.7,0.1
,,,,,,,,,,,354,147551.849168,,,Mackworth_Formal,236,0.6035268347522856,0,0,,8,0,1,0,0,0,Weiyu,3,30,3,12,0.7,0.1
,,,,,,,,,,,354,147552.456285,,,Mackworth_Formal,237,0.6035268347522856,0,0,,8,0,1,0,0,0,Weiyu,3,30,3,12,0.7,0.1
,,,,,,,,,,,355,147553.0669096,,,Mackworth_Formal,238,0.6035268347522856,0,0,,8,0,1,0,0,0,Weiyu,3,30,3,12,0.7,0.1
,,,,,,,,,,,355,147553.7006015,,,Mackworth_Formal,239,0.6035268347522856,0,0,,8,0,1,0,0,0,Weiyu,3,30,3,12,0.7,0.1
,,,,,,,,,,,356,147554.3339397,,,Mackworth_Formal,240,0.6035268347522856,0,0,,8,0,1,0,0,0,Weiyu,3,30,3,12,0.7,0.1
,,,,,,,,,,,357,147554.9605936,,,Mackworth_Formal,241,0.6035268347522856,0,0,,8,0,1,0,0,0,Weiyu,3,30,3,12,0.7,0.1
,,,,,,,,,,,357,147555.5774839,,,Mackworth_Formal,242,0.6035268347522856,0,0,,8,0,1,0,0,0,Weiyu,3,30,3,12,0.7,0.1
,,,,,,,,,,,358,147556.1861773,,,Mackworth_Formal,243,0.6035268347522856,0,0,,8,0,1,0,0,0,Weiyu,3,30,3,12,0.7,0.1
,,,,,,,,,,,359,147556.8136561,,,Mackworth_Formal,244,0.6035268347522856,0,0,,8,0,1,0,0,0,Weiyu,3,30,3,12,0.7,0.1
,,,,,,,,,,,359,147557.4387945,,,Mackworth_Formal,245,0.6035268347522856,0,0,,8,0,1,0,0,0,Weiyu,3,30,3,12,0.7,0.1
,,,,,,,,,,,360,147558.0969982,,,Mackworth_Formal,246,0.6035268347522856,0,0,,8,0,1,0,0,0,Weiyu,3,30,3,12,0.7,0.1
,,,,,,,,,,,360,147558.7136395,,,Mackworth_Formal,247,0.6035268347522856,0,0,,8,0,1,0,0,0,Weiyu,3,30,3,12,0.7,0.1
,,,,,,,,,,,361,147559.3301041,,,Mackworth_Formal,248,0.6035268347522856,1,1,0.4669710999878589,8,0,1,1,0,0,Weiyu,3,30,3,12,0.7,0.1
,,,,,,,,,,,362,147559.9387743,,,Mackworth_Formal,249,0.6035268347522856,0,0,,8,0,1,0,0,0,Weiyu,3,30,3,12,0.7,0.1
,,,,,,,,,,,362,147560.5717708,,,Mackworth_Formal,250,0.6035268347522856,0,0,,8,0,1,0,0,0,Weiyu,3,30,3,12,0.7,0.1
,,,,,,,,,,,363,147561.2052119,,,Mackworth_Formal,251,0.6035268347522856,0,0,,8,0,1,0,0,0,Weiyu,3,30,3,12,0.7,0.1
,,,,,,,,,,,364,147561.8171862,,,Mackworth_Formal,252,0.6035268347522856,0,0,,8,0,1,0,0,0,Weiyu,3,30,3,12,0.7,0.1
,,,,,,,,,,,364,147562.4308616,,,Mackworth_Formal,253,0.6035268347522856,0,0,,8,0,1,0,0,0,Weiyu,3,30,3,12,0.7,0.1
,,,,,,,,,,,365,147563.043926,,,Mackworth_Formal,254,0.6035268347522856,0,0,,8,0,1,0,0,0,Weiyu,3,30,3,12,0.7,0.1
,,,,,,,,,,,365,147563.7219047,,,Mackworth_Formal,255,0.6035268347522856,0,0,,8,0,1,0,0,0,Weiyu,3,30,3,12,0.7,0.1
,,,,,,,,,,,366,147564.3400626,,,Mackworth_Formal,256,0.6035268347522856,0,0,,8,0,1,0,0,0,Weiyu,3,30,3,12,0.7,0.1
,,,,,,,,,,,367,147564.9554953,,,Mackworth_Formal,257,0.6035268347522856,0,0,,8,0,1,0,0,0,Weiyu,3,30,3,12,0.7,0.1
,,,,,,,,,,,367,147565.5896358,,,Mackworth_Formal,258,0.6035268347522856,0,0,,8,0,1,0,0,0,Weiyu,3,30,3,12,0.7,0.1
,,,,,,,,,,,368,147566.2137064,,,Mackworth_Formal,259,0.6035268347522856,1,1,0.3922475000144914,8,0,1,1,0,0,Weiyu,3,30,3,12,0.7,0.1
,,,,,,,,,,,369,147566.8239501,,,Mackworth_Formal,260,0.6035268347522856,0,0,,8,0,1,0,0,0,Weiyu,3,30,3,12,0.7,0.1
,,,,,,,,,,,369,147567.4481723,,,Mackworth_Formal,261,0.6035268347522856,0,0,,8,0,1,0,0,0,Weiyu,3,30,3,12,0.7,0.1
,,,,,,,,,,,370,147568.0718901,,,Mackworth_Formal,262,0.6035268347522856,0,0,,8,0,1,0,0,0,Weiyu,3,30,3,12,0.7,0.1
,,,,,,,,,,,370,147568.7141102,,,Mackworth_Formal,263,0.6035268347522856,0,0,,8,0,1,0,0,0,Weiyu,3,30,3,12,0.7,0.1
,,,,,,,,,,,371,147569.3217615,,,Mackworth_Formal,264,0.6035268347522856,0,0,,8,0,1,0,0,0,Weiyu,3,30,3,12,0.7,0.1
,,,,,,,,,,,372,147569.946515,,,Mackworth_Formal,265,0.6035268347522856,0,0,,8,0,1,0,0,0,Weiyu,3,30,3,12,0.7,0.1
,,,,,,,,,,,372,147570.557219,,,Mackworth_Formal,266,0.6035268347522856,0,0,,8,0,1,0,0,0,Weiyu,3,30,3,12,0.7,0.1
,,,,,,,,,,,373,147571.1656261,,,Mackworth_Formal,267,0.6035268347522856,0,0,,8,0,1,0,0,0,Weiyu,3,30,3,12,0.7,0.1
,,,,,,,,,,,374,147571.7906606,,,Mackworth_Formal,268,0.6035268347522856,0,0,,8,0,1,0,0,0,Weiyu,3,30,3,12,0.7,0.1
,,,,,,,,,,,374,147572.4336113,,,Mackworth_Formal,269,0.6035268347522856,0,0,,8,0,1,0,0,0,Weiyu,3,30,3,12,0.7,0.1
,,,,,,,,,,,375,147573.0504299,,,Mackworth_Formal,270,0.6035268347522856,0,0,,8,0,1,0,0,0,Weiyu,3,30,3,12,0.7,0.1
,,,,,,,,,,,376,147573.9915135,,,Mackworth_Formal,271,0.6035268347522856,1,0,,8,0,0,0,0,1,Weiyu,3,30,3,12,0.7,0.1
,,,,,,,,,,,376,147574.6194535,,,Mackworth_Formal,272,0.6035268347522856,0,1,-0.2896742000011727,8,0,1,0,0,0,Weiyu,3,30,3,12,0.7,0.1
,,,,,,,,,,,377,147575.2518425,,,Mackworth_Formal,273,0.6035268347522856,0,0,,8,0,1,0,0,0,Weiyu,3,30,3,12,0.7,0.1
,,,,,,,,,,,378,147575.8616432,,,Mackworth_Formal,274,0.6035268347522856,1,1,0.5112513999920338,8,0,1,1,0,0,Weiyu,3,30,3,12,0.7,0.1
,,,,,,,,,,,378,147576.4850633,,,Mackworth_Formal,275,0.6035268347522856,0,0,,8,0,1,0,0,0,Weiyu,3,30,3,12,0.7,0.1
,,,,,,,,,,,379,147577.0930185,,,Mackworth_Formal,276,0.6035268347522856,0,0,,8,0,1,0,0,0,Weiyu,3,30,3,12,0.7,0.1
,,,,,,,,,,,379,147577.7285553,,,Mackworth_Formal,277,0.6035268347522856,0,0,,8,0,1,0,0,0,Weiyu,3,30,3,12,0.7,0.1
,,,,,,,,,,,380,147578.3353731,,,Mackworth_Formal,278,0.6035268347522856,0,0,,8,0,1,0,0,0,Weiyu,3,30,3,12,0.7,0.1
,,,,,,,,,,,381,147578.9455242,,,Mackworth_Formal,279,0.6035268347522856,0,0,,8,0,1,0,0,0,Weiyu,3,30,3,12,0.7,0.1
,,,,,,,,,,,381,147579.5891086,,,Mackworth_Formal,280,0.6035268347522856,0,0,,8,0,1,0,0,0,Weiyu,3,30,3,12,0.7,0.1
,,,,,,,,,,,382,147580.2414765,,,Mackworth_Formal,281,0.6035268347522856,0,0,,8,0,1,0,0,0,Weiyu,3,30,3,12,0.7,0.1
,,,,,,,,,,,383,147580.8476821,,,Mackworth_Formal,282,0.6035268347522856,0,0,,8,0,1,0,0,0,Weiyu,3,30,3,12,0.7,0.1
,,,,,,,,,,,383,147581.4809733,,,Mackworth_Formal,283,0.6035268347522856,0,0,,8,0,1,0,0,0,Weiyu,3,30,3,12,0.7,0.1
,,,,,,,,,,,384,147582.0971619,,,Mackworth_Formal,284,0.6035268347522856,0,0,,8,0,1,0,0,0,Weiyu,3,30,3,12,0.7,0.1
,,,,,,,,KSS,During,4,388,147586.1335238,,,,,,,,,,,,,,,Weiyu,3,30,3,12,0.7,0.1
,,,,,,,,Stress,During,,392,147590.0463482,3,,,,,,,,,,,,,,Weiyu,3,30,3,12,0.7,0.1
,,,,,,,,Frustration,During,,400,147597.7987608,,1,,,,,,,,,,,,,Weiyu,3,30,3,12,0.7,0.1
,,,,,,,,,,,402,147600.6014905,,,Mackworth_Formal,285,0.6035268347522856,0,0,,8,0,1,0,0,0,Weiyu,3,30,3,12,0.7,0.1
,,,,,,,,,,,403,147601.2098375,,,Mackworth_Formal,286,0.6035268347522856,0,0,,8,0,1,0,0,0,Weiyu,3,30,3,12,0.7,0.1
,,,,,,,,,,,404,147601.8246372,,,Mackworth_Formal,287,0.6035268347522856,1,1,0.4701587000163272,8,0,1,1,0,0,Weiyu,3,30,3,12,0.7,0.1
,,,,,,,,,,,404,147602.4520464,,,Mackworth_Formal,288,0.6035268347522856,0,0,,8,0,1,0,0,0,Weiyu,3,30,3,12,0.7,0.1
,,,,,,,,,,,405,147603.0844272,,,Mackworth_Formal,289,0.6035268347522856,0,0,,8,0,1,0,0,0,Weiyu,3,30,3,12,0.7,0.1
,,,,,,,,,,,405,147603.7036552,,,Mackworth_Formal,290,0.6035268347522856,0,0,,8,0,1,0,0,0,Weiyu,3,30,3,12,0.7,0.1
,,,,,,,,,,,406,147604.3134451,,,Mackworth_Formal,291,0.6035268347522856,0,0,,8,0,1,0,0,0,Weiyu,3,30,3,12,0.7,0.1
,,,,,,,,,,,407,147604.9365349,,,Mackworth_Formal,292,0.6035268347522856,0,0,,8,0,1,0,0,0,Weiyu,3,30,3,12,0.7,0.1
,,,,,,,,,,,407,147605.5541633,,,Mackworth_Formal,293,0.6035268347522856,0,0,,8,0,1,0,0,0,Weiyu,3,30,3,12,0.7,0.1
,,,,,,,,,,,408,147606.1796754,,,Mackworth_Formal,294,0.6035268347522856,0,0,,8,0,1,0,0,0,Weiyu,3,30,3,12,0.7,0.1
,,,,,,,,,,,409,147606.8091367,,,Mackworth_Formal,295,0.6035268347522856,1,1,0.41936979998718016,8,0,1,1,0,0,Weiyu,3,30,3,12,0.7,0.1
,,,,,,,,,,,409,147607.4179538,,,Mackworth_Formal,296,0.6035268347522856,0,0,,8,0,1,0,0,0,Weiyu,3,30,3,12,0.7,0.1
,,,,,,,,,,,410,147608.0272486,,,Mackworth_Formal,297,0.6035268347522856,0,0,,8,0,1,0,0,0,Weiyu,3,30,3,12,0.7,0.1
,,,,,,,,,,,410,147608.6427872,,,Mackworth_Formal,298,0.6035268347522856,1,1,0.39544130000285804,8,0,1,1,0,0,Weiyu,3,30,3,12,0.7,0.1
,,,,,,,,,,,411,147609.2701653,,,Mackworth_Formal,299,0.6035268347522856,0,0,,8,0,1,0,0,0,Weiyu,3,30,3,12,0.7,0.1
,,,,,,,,,,,412,147609.9031849,,,Mackworth_Formal,300,0.6035268347522856,0,0,,8,0,1,0,0,0,Weiyu,3,30,3,12,0.7,0.1
,,,,,,,,,,,412,147610.5115211,,,Mackworth_Formal,301,0.6035268347522856,0,0,,8,0,1,0,0,0,Weiyu,3,30,3,12,0.7,0.1
,,,,,,,,,,,413,147611.1465145,,,Mackworth_Formal,302,0.6035268347522856,0,0,,8,0,1,0,0,0,Weiyu,3,30,3,12,0.7,0.1
,,,,,,,,,,,414,147611.7722925,,,Mackworth_Formal,303,0.6035268347522856,0,0,,8,0,1,0,0,0,Weiyu,3,30,3,12,0.7,0.1
,,,,,,,,,,,414,147612.4054499,,,Mackworth_Formal,304,0.6035268347522856,0,0,,8,0,1,0,0,0,Weiyu,3,30,3,12,0.7,0.1
,,,,,,,,,,,415,147613.0385608,,,Mackworth_Formal,305,0.6035268347522856,0,0,,8,0,1,0,0,0,Weiyu,3,30,3,12,0.7,0.1
,,,,,,,,,,,415,147613.6570321,,,Mackworth_Formal,306,0.6035268347522856,0,0,,8,0,1,0,0,0,Weiyu,3,30,3,12,0.7,0.1
,,,,,,,,,,,416,147614.2735819,,,Mackworth_Formal,307,0.6035268347522856,0,0,,8,0,1,0,0,0,Weiyu,3,30,3,12,0.7,0.1
,,,,,,,,,,,417,147614.9064953,,,Mackworth_Formal,308,0.6035268347522856,0,0,,8,0,1,0,0,0,Weiyu,3,30,3,12,0.7,0.1
,,,,,,,,,,,417,147615.5150791,,,Mackworth_Formal,309,0.6035268347522856,0,0,,8,0,1,0,0,0,Weiyu,3,30,3,12,0.7,0.1
,,,,,,,,,,,418,147616.1404396,,,Mackworth_Formal,310,0.6035268347522856,0,0,,8,0,1,0,0,0,Weiyu,3,30,3,12,0.7,0.1
,,,,,,,,,,,419,147616.7736204,,,Mackworth_Formal,311,0.6035268347522856,0,0,,8,0,1,0,0,0,Weiyu,3,30,3,12,0.7,0.1
,,,,,,,,,,,419,147617.3825941,,,Mackworth_Formal,312,0.6035268347522856,0,0,,8,0,1,0,0,0,Weiyu,3,30,3,12,0.7,0.1
,,,,,,,,,,,420,147617.9959649,,,Mackworth_Formal,313,0.6035268347522856,0,0,,8,0,1,0,0,0,Weiyu,3,30,3,12,0.7,0.1
,,,,,,,,,,,420,147618.6287794,,,Mackworth_Formal,314,0.6035268347522856,1,1,0.3780838999955449,8,0,1,1,0,0,Weiyu,3,30,3,12,0.7,0.1
,,,,,,,,,,,421,147619.2632129,,,Mackworth_Formal,315,0.6035268347522856,0,0,,8,0,1,0,0,0,Weiyu,3,30,3,12,0.7,0.1
,,,,,,,,,,,422,147619.9034776,,,Mackworth_Formal,316,0.6035268347522856,0,0,,8,0,1,0,0,0,Weiyu,3,30,3,12,0.7,0.1
,,,,,,,,,,,422,147620.5205076,,,Mackworth_Formal,317,0.6035268347522856,0,0,,8,0,1,0,0,0,Weiyu,3,30,3,12,0.7,0.1
,,,,,,,,,,,423,147621.1528186,,,Mackworth_Formal,318,0.6035268347522856,0,0,,8,0,1,0,0,0,Weiyu,3,30,3,12,0.7,0.1
,,,,,,,,,,,424,147621.7682229,,,Mackworth_Formal,319,0.6035268347522856,0,0,,8,0,1,0,0,0,Weiyu,3,30,3,12,0.7,0.1
,,,,,,,,,,,424,147622.3850394,,,Mackworth_Formal,320,0.6035268347522856,0,0,,8,0,1,0,0,0,Weiyu,3,30,3,12,0.7,0.1
,,,,,,,,,,,425,147622.9939348,,,Mackworth_Formal,321,0.6035268347522856,0,0,,8,0,1,0,0,0,Weiyu,3,30,3,12,0.7,0.1
,,,,,,,,,,,425,147623.6019066,,,Mackworth_Formal,322,0.6035268347522856,0,0,,8,0,1,0,0,0,Weiyu,3,30,3,12,0.7,0.1
,,,,,,,,,,,426,147624.2194698,,,Mackworth_Formal,323,0.6035268347522856,0,0,,8,0,1,0,0,0,Weiyu,3,30,3,12,0.7,0.1
,,,,,,,,,,,427,147624.8299348,,,Mackworth_Formal,324,0.6035268347522856,0,0,,8,0,1,0,0,0,Weiyu,3,30,3,12,0.7,0.1
,,,,,,,,,,,427,147625.4526292,,,Mackworth_Formal,325,0.6035268347522856,1,1,0.38556100000278093,8,0,1,1,0,0,Weiyu,3,30,3,12,0.7,0.1
,,,,,,,,,,,428,147626.0604161,,,Mackworth_Formal,326,0.6035268347522856,0,0,,8,0,1,0,0,0,Weiyu,3,30,3,12,0.7,0.1
,,,,,,,,,,,428,147626.6696556,,,Mackworth_Formal,327,0.6035268347522856,0,0,,8,0,1,0,0,0,Weiyu,3,30,3,12,0.7,0.1
,,,,,,,,,,,429,147627.331852,,,Mackworth_Formal,328,0.6035268347522856,1,1,0.36172469999291934,8,0,1,1,0,0,Weiyu,3,30,3,12,0.7,0.1
,,,,,,,,,,,430,147627.9588928,,,Mackworth_Formal,329,0.6035268347522856,0,0,,8,0,1,0,0,0,Weiyu,3,30,3,12,0.7,0.1
,,,,,,,,,,,430,147628.5912812,,,Mackworth_Formal,330,0.6035268347522856,0,0,,8,0,1,0,0,0,Weiyu,3,30,3,12,0.7,0.1
,,,,,,,,,,,431,147629.216015,,,Mackworth_Formal,331,0.6035268347522856,1,1,0.43734990002121776,8,0,1,1,0,0,Weiyu,3,30,3,12,0.7,0.1
,,,,,,,,,,,432,147629.8348127,,,Mackworth_Formal,332,0.6035268347522856,0,0,,8,0,1,0,0,0,Weiyu,3,30,3,12,0.7,0.1
,,,,,,,,,,,432,147630.4517801,,,Mackworth_Formal,333,0.6035268347522856,0,0,,8,0,1,0,0,0,Weiyu,3,30,3,12,0.7,0.1
,,,,,,,,,,,433,147631.0706281,,,Mackworth_Formal,334,0.6035268347522856,0,0,,8,0,1,0,0,0,Weiyu,3,30,3,12,0.7,0.1
,,,,,,,,,,,433,147631.676527,,,Mackworth_Formal,335,0.6035268347522856,0,0,,8,0,1,0,0,0,Weiyu,3,30,3,12,0.7,0.1
,,,,,,,,,,,434,147632.3443341,,,Mackworth_Formal,336,0.6035268347522856,0,0,,8,0,1,0,0,0,Weiyu,3,30,3,12,0.7,0.1
,,,,,,,,,,,435,147632.9772573,,,Mackworth_Formal,337,0.6035268347522856,0,0,,8,0,1,0,0,0,Weiyu,3,30,3,12,0.7,0.1
,,,,,,,,,,,435,147633.6354707,,,Mackworth_Formal,338,0.6035268347522856,0,0,,8,0,1,0,0,0,Weiyu,3,30,3,12,0.7,0.1
,,,,,,,,,,,436,147634.2493945,,,Mackworth_Formal,339,0.6035268347522856,0,0,,8,0,1,0,0,0,Weiyu,3,30,3,12,0.7,0.1
,,,,,,,,,,,437,147634.8665416,,,Mackworth_Formal,340,0.6035268347522856,0,0,,8,0,1,0,0,0,Weiyu,3,30,3,12,0.7,0.1
,,,,,,,,,,,437,147635.4985888,,,Mackworth_Formal,341,0.6035268347522856,0,0,,8,0,1,0,0,0,Weiyu,3,30,3,12,0.7,0.1
,,,,,,,,,,,438,147636.123793,,,Mackworth_Formal,342,0.6035268347522856,1,1,0.4958409999962896,8,0,1,1,0,0,Weiyu,3,30,3,12,0.7,0.1
,,,,,,,,,,,438,147636.7404612,,,Mackworth_Formal,343,0.6035268347522856,0,0,,8,0,1,0,0,0,Weiyu,3,30,3,12,0.7,0.1
,,,,,,,,,,,439,147637.3578697,,,Mackworth_Formal,344,0.6035268347522856,0,0,,8,0,1,0,0,0,Weiyu,3,30,3,12,0.7,0.1
,,,,,,,,,,,440,147637.9653522,,,Mackworth_Formal,345,0.6035268347522856,0,0,,8,0,1,0,0,0,Weiyu,3,30,3,12,0.7,0.1
,,,,,,,,,,,440,147638.6249777,,,Mackworth_Formal,346,0.6035268347522856,0,0,,8,0,1,0,0,0,Weiyu,3,30,3,12,0.7,0.1
,,,,,,,,,,,441,147639.2583861,,,Mackworth_Formal,347,0.6035268347522856,0,0,,8,0,1,0,0,0,Weiyu,3,30,3,12,0.7,0.1
,,,,,,,,,,,442,147639.8901978,,,Mackworth_Formal,348,0.6035268347522856,0,0,,8,0,1,0,0,0,Weiyu,3,30,3,12,0.7,0.1
,,,,,,,,,,,442,147640.523479,,,Mackworth_Formal,349,0.6035268347522856,0,0,,8,0,1,0,0,0,Weiyu,3,30,3,12,0.7,0.1
,,,,,,,,,,,443,147641.1412313,,,Mackworth_Formal,350,0.6035268347522856,0,0,,8,0,1,0,0,0,Weiyu,3,30,3,12,0.7,0.1
,,,,,,,,,,,443,147641.7505158,,,Mackworth_Formal,351,0.6035268347522856,0,0,,8,0,1,0,0,0,Weiyu,3,30,3,12,0.7,0.1
,,,,,,,,,,,444,147642.3823747,,,Mackworth_Formal,352,0.6035268347522856,0,0,,8,0,1,0,0,0,Weiyu,3,30,3,12,0.7,0.1
,,,,,,,,,,,445,147643.0071576,,,Mackworth_Formal,353,0.6035268347522856,0,0,,8,0,1,0,0,0,Weiyu,3,30,3,12,0.7,0.1
,,,,,,,,,,,445,147643.6122396,,,Mackworth_Formal,354,0.6035268347522856,0,0,,8,0,1,0,0,0,Weiyu,3,30,3,12,0.7,0.1
,,,,,,,,,,,446,147644.2520811,,,Mackworth_Formal,355,0.6035268347522856,0,0,,8,0,1,0,0,0,Weiyu,3,30,3,12,0.7,0.1
,,,,,,,,,,,447,147644.8691816,,,Mackworth_Formal,356,0.6035268347522856,0,0,,8,0,1,0,0,0,Weiyu,3,30,3,12,0.7,0.1
,,,,,,,,,,,447,147645.4919616,,,Mackworth_Formal,357,0.6035268347522856,0,0,,8,0,1,0,0,0,Weiyu,3,30,3,12,0.7,0.1
,,,,,,,,,,,448,147646.106624,,,Mackworth_Formal,358,0.6035268347522856,0,0,,8,0,1,0,0,0,Weiyu,3,30,3,12,0.7,0.1
,,,,,,,,,,,448,147646.715457,,,Mackworth_Formal,359,0.6035268347522856,0,0,,8,0,1,0,0,0,Weiyu,3,30,3,12,0.7,0.1
,,,,,,,,,,,449,147647.347945,,,Mackworth_Formal,360,0.6035268347522856,0,0,,8,0,1,0,0,0,Weiyu,3,30,3,12,0.7,0.1
,,,,,,,,,,,450,147647.9647694,,,Mackworth_Formal,361,0.6035268347522856,0,0,,8,0,1,0,0,0,Weiyu,3,30,3,12,0.7,0.1
,,,,,,,,,,,450,147648.5728096,,,Mackworth_Formal,362,0.6035268347522856,0,0,,8,0,1,0,0,0,Weiyu,3,30,3,12,0.7,0.1
,,,,,,,,,,,451,147649.1792262,,,Mackworth_Formal,363,0.6035268347522856,0,0,,8,0,1,0,0,0,Weiyu,3,30,3,12,0.7,0.1
,,,,,,,,,,,452,147649.8036308,,,Mackworth_Formal,364,0.6035268347522856,0,0,,8,0,1,0,0,0,Weiyu,3,30,3,12,0.7,0.1
,,,,,,,,,,,452,147650.4305555,,,Mackworth_Formal,365,0.6035268347522856,0,0,,8,0,1,0,0,0,Weiyu,3,30,3,12,0.7,0.1
,,,,,,,,,,,453,147651.0702007,,,Mackworth_Formal,366,0.6035268347522856,0,0,,8,0,1,0,0,0,Weiyu,3,30,3,12,0.7,0.1
,,,,,,,,,,,453,147651.695589,,,Mackworth_Formal,367,0.6035268347522856,0,0,,8,0,1,0,0,0,Weiyu,3,30,3,12,0.7,0.1
,,,,,,,,,,,454,147652.3200978,,,Mackworth_Formal,368,0.6035268347522856,0,0,,8,0,1,0,0,0,Weiyu,3,30,3,12,0.7,0.1
,,,,,,,,,,,455,147652.9451404,,,Mackworth_Formal,369,0.6035268347522856,1,1,0.5950740999833215,8,0,1,1,0,0,Weiyu,3,30,3,12,0.7,0.1
,,,,,,,,,,,456,147653.8950538,,,Mackworth_Formal,370,0.6035268347522856,1,0,,8,0,0,0,0,1,Weiyu,3,30,3,12,0.7,0.1
,,,,,,,,,,,456,147654.5136324,,,Mackworth_Formal,371,0.6035268347522856,0,1,-0.2787174000113737,8,0,1,0,0,0,Weiyu,3,30,3,12,0.7,0.1
,,,,,,,,,,,457,147655.1395174,,,Mackworth_Formal,372,0.6035268347522856,0,0,,8,0,1,0,0,0,Weiyu,3,30,3,12,0.7,0.1
,,,,,,,,,,,458,147655.7662889,,,Mackworth_Formal,373,0.6035268347522856,0,0,,8,0,1,0,0,0,Weiyu,3,30,3,12,0.7,0.1
,,,,,,,,,,,458,147656.3825879,,,Mackworth_Formal,374,0.6035268347522856,0,0,,8,0,1,0,0,0,Weiyu,3,30,3,12,0.7,0.1
,,,,,,,,,,,459,147656.991526,,,Mackworth_Formal,375,0.6035268347522856,0,0,,8,0,1,0,0,0,Weiyu,3,30,3,12,0.7,0.1
,,,,,,,,,,,459,147657.6455571,,,Mackworth_Formal,376,0.6035268347522856,1,1,0.4459136000077706,8,0,1,1,0,0,Weiyu,3,30,3,12,0.7,0.1
,,,,,,,,,,,460,147658.2752176,,,Mackworth_Formal,377,0.6035268347522856,0,0,,8,0,1,0,0,0,Weiyu,3,30,3,12,0.7,0.1
,,,,,,,,,,,461,147658.9423718,,,Mackworth_Formal,378,0.6035268347522856,0,0,,8,0,1,0,0,0,Weiyu,3,30,3,12,0.7,0.1
,,,,,,,,,,,461,147659.5596933,,,Mackworth_Formal,379,0.6035268347522856,0,0,,8,0,1,0,0,0,Weiyu,3,30,3,12,0.7,0.1
,,,,,,,,,,,462,147660.1924814,,,Mackworth_Formal,380,0.6035268347522856,0,0,,8,0,1,0,0,0,Weiyu,3,30,3,12,0.7,0.1
,,,,,,,,,,,463,147660.8262486,,,Mackworth_Formal,381,0.6035268347522856,0,0,,8,0,1,0,0,0,Weiyu,3,30,3,12,0.7,0.1
,,,,,,,,,,,463,147661.4584322,,,Mackworth_Formal,382,0.6035268347522856,0,0,,8,0,1,0,0,0,Weiyu,3,30,3,12,0.7,0.1
,,,,,,,,,,,464,147662.0751811,,,Mackworth_Formal,383,0.6035268347522856,1,1,0.4435125000018161,8,0,1,1,0,0,Weiyu,3,30,3,12,0.7,0.1
,,,,,,,,,,,464,147662.6840998,,,Mackworth_Formal,384,0.6035268347522856,0,0,,8,0,1,0,0,0,Weiyu,3,30,3,12,0.7,0.1
,,,,,,,,,,,465,147663.3008752,,,Mackworth_Formal,385,0.6035268347522856,0,0,,8,0,1,0,0,0,Weiyu,3,30,3,12,0.7,0.1
,,,,,,,,,,,466,147663.9110147,,,Mackworth_Formal,386,0.6035268347522856,0,0,,8,0,1,0,0,0,Weiyu,3,30,3,12,0.7,0.1
,,,,,,,,,,,466,147664.5199306,,,Mackworth_Formal,387,0.6035268347522856,0,0,,8,0,1,0,0,0,Weiyu,3,30,3,12,0.7,0.1
,,,,,,,,,,,467,147665.1323072,,,Mackworth_Formal,388,0.6035268347522856,0,0,,8,0,1,0,0,0,Weiyu,3,30,3,12,0.7,0.1
,,,,,,,,,,,467,147665.7501423,,,Mackworth_Formal,389,0.6035268347522856,0,0,,8,0,1,0,0,0,Weiyu,3,30,3,12,0.7,0.1
,,,,,,,,,,,468,147666.3836646,,,Mackworth_Formal,390,0.6035268347522856,1,1,0.42208920000121,8,0,1,1,0,0,Weiyu,3,30,3,12,0.7,0.1
,,,,,,,,,,,469,147667.016783,,,Mackworth_Formal,391,0.6035268347522856,0,0,,8,0,1,0,0,0,Weiyu,3,30,3,12,0.7,0.1
,,,,,,,,,,,469,147667.6367503,,,Mackworth_Formal,392,0.6035268347522856,0,0,,8,0,1,0,0,0,Weiyu,3,30,3,12,0.7,0.1
,,,,,,,,,,,470,147668.2434803,,,Mackworth_Formal,393,0.6035268347522856,1,1,0.6061921000073198,8,0,1,1,0,0,Weiyu,3,30,3,12,0.7,0.1
,,,,,,,,,,,471,147668.8511963,,,Mackworth_Formal,394,0.6035268347522856,0,0,,8,0,1,0,0,0,Weiyu,3,30,3,12,0.7,0.1
,,,,,,,,,,,471,147669.4709836,,,Mackworth_Formal,395,0.6035268347522856,0,0,,8,0,1,0,0,0,Weiyu,3,30,3,12,0.7,0.1
,,,,,,,,,,,472,147670.0779125,,,Mackworth_Formal,396,0.6035268347522856,0,0,,8,0,1,0,0,0,Weiyu,3,30,3,12,0.7,0.1
,,,,,,,,,,,472,147670.7034864,,,Mackworth_Formal,397,0.6035268347522856,0,0,,8,0,1,0,0,0,Weiyu,3,30,3,12,0.7,0.1
,,,,,,,,,,,473,147671.3107466,,,Mackworth_Formal,398,0.6035268347522856,0,0,,8,0,1,0,0,0,Weiyu,3,30,3,12,0.7,0.1
,,,,,,,,,,,474,147671.9362698,,,Mackworth_Formal,399,0.6035268347522856,0,0,,8,0,1,0,0,0,Weiyu,3,30,3,12,0.7,0.1
,,,,,,,,,,,474,147672.5613776,,,Mackworth_Formal,400,0.6035268347522856,0,0,,8,0,1,0,0,0,Weiyu,3,30,3,12,0.7,0.1
,,,,,,,,,,,475,147673.1694642,,,Mackworth_Formal,401,0.6035268347522856,0,0,,8,0,1,0,0,0,Weiyu,3,30,3,12,0.7,0.1
,,,,,,,,,,,476,147673.7792865,,,Mackworth_Formal,402,0.6035268347522856,0,0,,8,0,1,0,0,0,Weiyu,3,30,3,12,0.7,0.1
,,,,,,,,,,,476,147674.3878765,,,Mackworth_Formal,403,0.6035268347522856,0,0,,8,0,1,0,0,0,Weiyu,3,30,3,12,0.7,0.1
,,,,,,,,,,,477,147675.0243815,,,Mackworth_Formal,404,0.6035268347522856,0,0,,8,0,1,0,0,0,Weiyu,3,30,3,12,0.7,0.1
,,,,,,,,,,,477,147675.6583369,,,Mackworth_Formal,405,0.6035268347522856,0,0,,8,0,1,0,0,0,Weiyu,3,30,3,12,0.7,0.1
,,,,,,,,,,,478,147676.2733444,,,Mackworth_Formal,406,0.6035268347522856,0,0,,8,0,1,0,0,0,Weiyu,3,30,3,12,0.7,0.1
,,,,,,,,,,,479,147676.887429,,,Mackworth_Formal,407,0.6035268347522856,0,0,,8,0,1,0,0,0,Weiyu,3,30,3,12,0.7,0.1
,,,,,,,,,,,479,147677.4993295,,,Mackworth_Formal,408,0.6035268347522856,0,0,,8,0,1,0,0,0,Weiyu,3,30,3,12,0.7,0.1
,,,,,,,,,,,480,147678.1245291,,,Mackworth_Formal,409,0.6035268347522856,0,0,,8,0,1,0,0,0,Weiyu,3,30,3,12,0.7,0.1
,,,,,,,,,,,481,147678.7593889,,,Mackworth_Formal,410,0.6035268347522856,0,0,,8,0,1,0,0,0,Weiyu,3,30,3,12,0.7,0.1
,,,,,,,,,,,481,147679.384951,,,Mackworth_Formal,411,0.6035268347522856,0,0,,8,0,1,0,0,0,Weiyu,3,30,3,12,0.7,0.1
,,,,,,,,,,,482,147679.9928983,,,Mackworth_Formal,412,0.6035268347522856,0,0,,8,0,1,0,0,0,Weiyu,3,30,3,12,0.7,0.1
,,,,,,,,,,,482,147680.6338831,,,Mackworth_Formal,413,0.6035268347522856,0,0,,8,0,1,0,0,0,Weiyu,3,30,3,12,0.7,0.1
,,,,,,,,,,,483,147681.2517298,,,Mackworth_Formal,414,0.6035268347522856,0,0,,8,0,1,0,0,0,Weiyu,3,30,3,12,0.7,0.1
,,,,,,,,,,,484,147681.8557047,,,Mackworth_Formal,415,0.6035268347522856,0,0,,8,0,1,0,0,0,Weiyu,3,30,3,12,0.7,0.1
,,,,,,,,,,,484,147682.489666,,,Mackworth_Formal,416,0.6035268347522856,0,0,,8,0,1,0,0,0,Weiyu,3,30,3,12,0.7,0.1
,,,,,,,,,,,485,147683.1146984,,,Mackworth_Formal,417,0.6035268347522856,0,0,,8,0,1,0,0,0,Weiyu,3,30,3,12,0.7,0.1
,,,,,,,,,,,485,147683.7470106,,,Mackworth_Formal,418,0.6035268347522856,0,0,,8,0,1,0,0,0,Weiyu,3,30,3,12,0.7,0.1
,,,,,,,,,,,486,147684.3585042,,,Mackworth_Formal,419,0.6035268347522856,1,1,0.4326211999868974,8,0,1,1,0,0,Weiyu,3,30,3,12,0.7,0.1
,,,,,,,,,,,487,147684.9916275,,,Mackworth_Formal,420,0.6035268347522856,0,0,,8,0,1,0,0,0,Weiyu,3,30,3,12,0.7,0.1
,,,,,,,,,,,487,147685.6410461,,,Mackworth_Formal,421,0.6035268347522856,0,0,,8,0,1,0,0,0,Weiyu,3,30,3,12,0.7,0.1
,,,,,,,,,,,488,147686.258401,,,Mackworth_Formal,422,0.6035268347522856,0,0,,8,0,1,0,0,0,Weiyu,3,30,3,12,0.7,0.1
,,,,,,,,,,,489,147686.8680805,,,Mackworth_Formal,423,0.6035268347522856,0,0,,8,0,1,0,0,0,Weiyu,3,30,3,12,0.7,0.1
,,,,,,,,,,,489,147687.5004012,,,Mackworth_Formal,424,0.6035268347522856,0,0,,8,0,1,0,0,0,Weiyu,3,30,3,12,0.7,0.1
,,,,,,,,,,,490,147688.1169348,,,Mackworth_Formal,425,0.6035268347522856,0,0,,8,0,1,0,0,0,Weiyu,3,30,3,12,0.7,0.1
,,,,,,,,,,,490,147688.7282479,,,Mackworth_Formal,426,0.6035268347522856,0,0,,8,0,1,0,0,0,Weiyu,3,30,3,12,0.7,0.1
,,,,,,,,,,,491,147689.3447452,,,Mackworth_Formal,427,0.6035268347522856,0,0,,8,0,1,0,0,0,Weiyu,3,30,3,12,0.7,0.1
,,,,,,,,,,,492,147689.9535174,,,Mackworth_Formal,428,0.6035268347522856,0,0,,8,0,1,0,0,0,Weiyu,3,30,3,12,0.7,0.1
,,,,,,,,,,,492,147690.5694647,,,Mackworth_Formal,429,0.6035268347522856,1,1,0.48221479999483563,8,0,1,1,0,0,Weiyu,3,30,3,12,0.7,0.1
,,,,,,,,,,,493,147691.1787688,,,Mackworth_Formal,430,0.6035268347522856,0,0,,8,0,1,0,0,0,Weiyu,3,30,3,12,0.7,0.1
,,,,,,,,,,,494,147691.7935014,,,Mackworth_Formal,431,0.6035268347522856,0,0,,8,0,1,0,0,0,Weiyu,3,30,3,12,0.7,0.1
,,,,,,,,,,,494,147692.4030911,,,Mackworth_Formal,432,0.6035268347522856,0,0,,8,0,1,0,0,0,Weiyu,3,30,3,12,0.7,0.1
,,,,,,,,,,,495,147693.0272326,,,Mackworth_Formal,433,0.6035268347522856,0,0,,8,0,1,0,0,0,Weiyu,3,30,3,12,0.7,0.1
,,,,,,,,,,,495,147693.6524592,,,Mackworth_Formal,434,0.6035268347522856,0,0,,8,0,1,0,0,0,Weiyu,3,30,3,12,0.7,0.1
,,,,,,,,,,,496,147694.277564,,,Mackworth_Formal,435,0.6035268347522856,0,0,,8,0,1,0,0,0,Weiyu,3,30,3,12,0.7,0.1
,,,,,,,,,,,497,147694.9027769,,,Mackworth_Formal,436,0.6035268347522856,0,0,,8,0,1,0,0,0,Weiyu,3,30,3,12,0.7,0.1
,,,,,,,,,,,497,147695.5274201,,,Mackworth_Formal,437,0.6035268347522856,1,1,0.3931494999851566,8,0,1,1,0,0,Weiyu,3,30,3,12,0.7,0.1
,,,,,,,,,,,498,147696.1330384,,,Mackworth_Formal,438,0.6035268347522856,0,0,,8,0,1,0,0,0,Weiyu,3,30,3,12,0.7,0.1
,,,,,,,,,,,499,147696.7577307,,,Mackworth_Formal,439,0.6035268347522856,0,0,,8,0,1,0,0,0,Weiyu,3,30,3,12,0.7,0.1
,,,,,,,,,,,499,147697.3800161,,,Mackworth_Formal,440,0.6035268347522856,0,0,,8,0,1,0,0,0,Weiyu,3,30,3,12,0.7,0.1
,,,,,,,,,,,500,147698.0051421,,,Mackworth_Formal,441,0.6035268347522856,0,0,,8,0,1,0,0,0,Weiyu,3,30,3,12,0.7,0.1
,,,,,,,,,,,500,147698.6387286,,,Mackworth_Formal,442,0.6035268347522856,0,0,,8,0,1,0,0,0,Weiyu,3,30,3,12,0.7,0.1
,,,,,,,,,,,501,147699.2566156,,,Mackworth_Formal,443,0.6035268347522856,0,0,,8,0,1,0,0,0,Weiyu,3,30,3,12,0.7,0.1
,,,,,,,,,,,502,147699.8739925,,,Mackworth_Formal,444,0.6035268347522856,0,0,,8,0,1,0,0,0,Weiyu,3,30,3,12,0.7,0.1
,,,,,,,,,,,502,147700.5496513,,,Mackworth_Formal,445,0.6035268347522856,0,0,,8,0,1,0,0,0,Weiyu,3,30,3,12,0.7,0.1
,,,,,,,,,,,503,147701.1820268,,,Mackworth_Formal,446,0.6035268347522856,0,0,,8,0,1,0,0,0,Weiyu,3,30,3,12,0.7,0.1
,,,,,,,,,,,504,147701.7913228,,,Mackworth_Formal,447,0.6035268347522856,0,0,,8,0,1,0,0,0,Weiyu,3,30,3,12,0.7,0.1
,,,,,,,,,,,504,147702.4346574,,,Mackworth_Formal,448,0.6035268347522856,1,1,0.5434604000183754,8,0,1,1,0,0,Weiyu,3,30,3,12,0.7,0.1
,,,,,,,,,,,505,147703.0492358,,,Mackworth_Formal,449,0.6035268347522856,0,0,,8,0,1,0,0,0,Weiyu,3,30,3,12,0.7,0.1
,,,,,,,,,,,505,147703.6563921,,,Mackworth_Formal,450,0.6035268347522856,0,0,,8,0,1,0,0,0,Weiyu,3,30,3,12,0.7,0.1
,,,,,,,,,,,506,147704.2816007,,,Mackworth_Formal,451,0.6035268347522856,0,0,,8,0,1,0,0,0,Weiyu,3,30,3,12,0.7,0.1
,,,,,,,,,,,507,147704.8985826,,,Mackworth_Formal,452,0.6035268347522856,1,1,0.41099380000378005,8,0,1,1,0,0,Weiyu,3,30,3,12,0.7,0.1
,,,,,,,,,,,507,147705.5236482,,,Mackworth_Formal,453,0.6035268347522856,0,0,,8,0,1,0,0,0,Weiyu,3,30,3,12,0.7,0.1
,,,,,,,,,,,508,147706.1407032,,,Mackworth_Formal,454,0.6035268347522856,0,0,,8,0,1,0,0,0,Weiyu,3,30,3,12,0.7,0.1
,,,,,,,,,,,508,147706.7481907,,,Mackworth_Formal,455,0.6035268347522856,0,0,,8,0,1,0,0,0,Weiyu,3,30,3,12,0.7,0.1
,,,,,,,,,,,509,147707.355309,,,Mackworth_Formal,456,0.6035268347522856,0,0,,8,0,1,0,0,0,Weiyu,3,30,3,12,0.7,0.1
,,,,,,,,,,,510,147707.9637583,,,Mackworth_Formal,457,0.6035268347522856,0,0,,8,0,1,0,0,0,Weiyu,3,30,3,12,0.7,0.1
,,,,,,,,,,,510,147708.6042693,,,Mackworth_Formal,458,0.6035268347522856,0,0,,8,0,1,0,0,0,Weiyu,3,30,3,12,0.7,0.1
,,,,,,,,,,,511,147709.2264159,,,Mackworth_Formal,459,0.6035268347522856,0,0,,8,0,1,0,0,0,Weiyu,3,30,3,12,0.7,0.1
,,,,,,,,,,,512,147709.8421195,,,Mackworth_Formal,460,0.6035268347522856,0,0,,8,0,1,0,0,0,Weiyu,3,30,3,12,0.7,0.1
,,,,,,,,,,,512,147710.4756986,,,Mackworth_Formal,461,0.6035268347522856,0,0,,8,0,1,0,0,0,Weiyu,3,30,3,12,0.7,0.1
,,,,,,,,,,,513,147711.1133241,,,Mackworth_Formal,462,0.6035268347522856,0,0,,8,0,1,0,0,0,Weiyu,3,30,3,12,0.7,0.1
,,,,,,,,,,,513,147711.7170507,,,Mackworth_Formal,463,0.6035268347522856,0,0,,8,0,1,0,0,0,Weiyu,3,30,3,12,0.7,0.1
,,,,,,,,,,,514,147712.3367014,,,Mackworth_Formal,464,0.6035268347522856,0,0,,8,0,1,0,0,0,Weiyu,3,30,3,12,0.7,0.1
,,,,,,,,,,,515,147712.9783536,,,Mackworth_Formal,465,0.6035268347522856,0,0,,8,0,1,0,0,0,Weiyu,3,30,3,12,0.7,0.1
,,,,,,,,,,,515,147713.6013321,,,Mackworth_Formal,466,0.6035268347522856,0,0,,8,0,1,0,0,0,Weiyu,3,30,3,12,0.7,0.1
,,,,,,,,,,,516,147714.2207523,,,Mackworth_Formal,467,0.6035268347522856,0,0,,8,0,1,0,0,0,Weiyu,3,30,3,12,0.7,0.1
,,,,,,,,,,,517,147714.8604244,,,Mackworth_Formal,468,0.6035268347522856,0,0,,8,0,1,0,0,0,Weiyu,3,30,3,12,0.7,0.1
,,,,,,,,,,,517,147715.4656441,,,Mackworth_Formal,469,0.6035268347522856,0,0,,8,0,1,0,0,0,Weiyu,3,30,3,12,0.7,0.1
,,,,,,,,,,,518,147716.0920378,,,Mackworth_Formal,470,0.6035268347522856,0,0,,8,0,1,0,0,0,Weiyu,3,30,3,12,0.7,0.1
,,,,,,,,,,,518,147716.7078491,,,Mackworth_Formal,471,0.6035268347522856,0,0,,8,0,1,0,0,0,Weiyu,3,30,3,12,0.7,0.1
,,,,,,,,,,,519,147717.3240898,,,Mackworth_Formal,472,0.6035268347522856,0,0,,8,0,1,0,0,0,Weiyu,3,30,3,12,0.7,0.1
,,,,,,,,,,,520,147718.2760735,,,Mackworth_Formal,473,0.6035268347522856,1,0,,8,0,0,0,0,1,Weiyu,3,30,3,12,0.7,0.1
,,,,,,,,,,,521,147718.8800543,,,Mackworth_Formal,474,0.6035268347522856,0,1,-0.2780219999840483,8,0,1,0,0,0,Weiyu,3,30,3,12,0.7,0.1
,,,,,,,,,,,521,147719.4904329,,,Mackworth_Formal,475,0.6035268347522856,0,0,,8,0,1,0,0,0,Weiyu,3,30,3,12,0.7,0.1
,,,,,,,,,,,522,147720.1352145,,,Mackworth_Formal,476,0.6035268347522856,0,0,,8,0,1,0,0,0,Weiyu,3,30,3,12,0.7,0.1
,,,,,,,,,,,523,147720.7750624,,,Mackworth_Formal,477,0.6035268347522856,0,0,,8,0,1,0,0,0,Weiyu,3,30,3,12,0.7,0.1
,,,,,,,,,,,523,147721.3916738,,,Mackworth_Formal,478,0.6035268347522856,0,0,,8,0,1,0,0,0,Weiyu,3,30,3,12,0.7,0.1
,,,,,,,,,,,524,147722.017963,,,Mackworth_Formal,479,0.6035268347522856,0,0,,8,0,1,0,0,0,Weiyu,3,30,3,12,0.7,0.1
,,,,,,,,,,,524,147722.6606093,,,Mackworth_Formal,480,0.6035268347522856,0,0,,8,0,1,0,0,0,Weiyu,3,30,3,12,0.7,0.1
,,,,,,,,,,,525,147723.2853021,,,Mackworth_Formal,481,0.6035268347522856,0,0,,8,0,1,0,0,0,Weiyu,3,30,3,12,0.7,0.1
,,,,,,,,,,,526,147723.9031942,,,Mackworth_Formal,482,0.6035268347522856,0,0,,8,0,1,0,0,0,Weiyu,3,30,3,12,0.7,0.1
,,,,,,,,,,,527,147724.8600734,,,Mackworth_Formal,483,0.6035268347522856,1,0,,8,0,0,0,0,1,Weiyu,3,30,3,12,0.7,0.1
,,,,,,,,,,,527,147725.5057629,,,Mackworth_Formal,484,0.6035268347522856,0,0,,8,0,1,0,0,0,Weiyu,3,30,3,12,0.7,0.1
,,,,,,,,,,,528,147726.1226234,,,Mackworth_Formal,485,0.6035268347522856,1,1,0.5246632000198588,8,0,1,1,0,0,Weiyu,3,30,3,12,0.7,0.1
,,,,,,,,,,,528,147726.7279816,,,Mackworth_Formal,486,0.6035268347522856,0,0,,8,0,1,0,0,0,Weiyu,3,30,3,12,0.7,0.1
,,,,,,,,,,,529,147727.3365749,,,Mackworth_Formal,487,0.6035268347522856,0,0,,8,0,1,0,0,0,Weiyu,3,30,3,12,0.7,0.1
,,,,,,,,,,,530,147727.9524951,,,Mackworth_Formal,488,0.6035268347522856,0,0,,8,0,1,0,0,0,Weiyu,3,30,3,12,0.7,0.1
,,,,,,,,,,,530,147728.5616298,,,Mackworth_Formal,489,0.6035268347522856,0,0,,8,0,1,0,0,0,Weiyu,3,30,3,12,0.7,0.1
,,,,,,,,,,,531,147729.1858198,,,Mackworth_Formal,490,0.6035268347522856,0,0,,8,0,1,0,0,0,Weiyu,3,30,3,12,0.7,0.1
,,,,,,,,,,,532,147729.8025301,,,Mackworth_Formal,491,0.6035268347522856,0,0,,8,0,1,0,0,0,Weiyu,3,30,3,12,0.7,0.1
,,,,,,,,,,,532,147730.4241093,,,Mackworth_Formal,492,0.6035268347522856,0,0,,8,0,1,0,0,0,Weiyu,3,30,3,12,0.7,0.1
,,,,,,,,,,,533,147731.0326029,,,Mackworth_Formal,493,0.6035268347522856,0,0,,8,0,1,0,0,0,Weiyu,3,30,3,12,0.7,0.1
,,,,,,,,,,,533,147731.6605518,,,Mackworth_Formal,494,0.6035268347522856,0,0,,8,0,1,0,0,0,Weiyu,3,30,3,12,0.7,0.1
,,,,,,,,,,,534,147732.2692534,,,Mackworth_Formal,495,0.6035268347522856,0,0,,8,0,1,0,0,0,Weiyu,3,30,3,12,0.7,0.1
,,,,,,,,,,,535,147732.8947679,,,Mackworth_Formal,496,0.6035268347522856,0,0,,8,0,1,0,0,0,Weiyu,3,30,3,12,0.7,0.1
,,,,,,,,,,,535,147733.5027876,,,Mackworth_Formal,497,0.6035268347522856,0,0,,8,0,1,0,0,0,Weiyu,3,30,3,12,0.7,0.1
,,,,,,,,,,,536,147734.1380985,,,Mackworth_Formal,498,0.6035268347522856,0,0,,8,0,1,0,0,0,Weiyu,3,30,3,12,0.7,0.1
,,,,,,,,,,,537,147734.7640148,,,Mackworth_Formal,499,0.6035268347522856,0,0,,8,0,1,0,0,0,Weiyu,3,30,3,12,0.7,0.1
,,,,,,,,,,,537,147735.4410231,,,Mackworth_Formal,500,0.6035268347522856,0,0,,8,0,1,0,0,0,Weiyu,3,30,3,12,0.7,0.1
,,,,,,,,,,,538,147736.4651011,,,Mackworth_Formal,501,0.6035268347522856,0,1,0.5807305000198539,8,0,0,0,1,0,Weiyu,3,30,3,12,0.7,0.1
,,,,,,,,,,,539,147737.1251421,,,Mackworth_Formal,502,0.6035268347522856,0,0,,8,0,1,0,0,0,Weiyu,3,30,3,12,0.7,0.1
,,,,,,,,,,,539,147737.7446312,,,Mackworth_Formal,503,0.6035268347522856,0,0,,8,0,1,0,0,0,Weiyu,3,30,3,12,0.7,0.1
,,,,,,,,,,,540,147738.3522467,,,Mackworth_Formal,504,0.6035268347522856,0,0,,8,0,1,0,0,0,Weiyu,3,30,3,12,0.7,0.1
,,,,,,,,,,,541,147738.9935687,,,Mackworth_Formal,505,0.6035268347522856,0,0,,8,0,1,0,0,0,Weiyu,3,30,3,12,0.7,0.1
,,,,,,,,,,,541,147739.6192921,,,Mackworth_Formal,506,0.6035268347522856,0,0,,8,0,1,0,0,0,Weiyu,3,30,3,12,0.7,0.1
,,,,,,,,,,,542,147740.2447695,,,Mackworth_Formal,507,0.6035268347522856,0,0,,8,0,1,0,0,0,Weiyu,3,30,3,12,0.7,0.1
,,,,,,,,,,,543,147740.8738951,,,Mackworth_Formal,508,0.6035268347522856,0,0,,8,0,1,0,0,0,Weiyu,3,30,3,12,0.7,0.1
,,,,,,,,,,,543,147741.5173312,,,Mackworth_Formal,509,0.6035268347522856,0,0,,8,0,1,0,0,0,Weiyu,3,30,3,12,0.7,0.1
,,,,,,,,,,,544,147742.1416123,,,Mackworth_Formal,510,0.6035268347522856,0,0,,8,0,1,0,0,0,Weiyu,3,30,3,12,0.7,0.1
,,,,,,,,,,,545,147742.7576258,,,Mackworth_Formal,511,0.6035268347522856,0,0,,8,0,1,0,0,0,Weiyu,3,30,3,12,0.7,0.1
,,,,,,,,,,,545,147743.3744314,,,Mackworth_Formal,512,0.6035268347522856,0,0,,8,0,1,0,0,0,Weiyu,3,30,3,12,0.7,0.1
,,,,,,,,,,,546,147744.0158161,,,Mackworth_Formal,513,0.6035268347522856,0,0,,8,0,1,0,0,0,Weiyu,3,30,3,12,0.7,0.1
,,,,,,,,,,,546,147744.6468438,,,Mackworth_Formal,514,0.6035268347522856,0,0,,8,0,1,0,0,0,Weiyu,3,30,3,12,0.7,0.1
,,,,,,,,,,,547,147745.2720886,,,Mackworth_Formal,515,0.6035268347522856,0,0,,8,0,1,0,0,0,Weiyu,3,30,3,12,0.7,0.1
,,,,,,,,,,,548,147745.8809236,,,Mackworth_Formal,516,0.6035268347522856,0,0,,8,0,1,0,0,0,Weiyu,3,30,3,12,0.7,0.1
,,,,,,,,,,,548,147746.498018,,,Mackworth_Formal,517,0.6035268347522856,0,0,,8,0,1,0,0,0,Weiyu,3,30,3,12,0.7,0.1
,,,,,,,,,,,549,147747.114591,,,Mackworth_Formal,518,0.6035268347522856,0,0,,8,0,1,0,0,0,Weiyu,3,30,3,12,0.7,0.1
,,,,,,,,,,,549,147747.7313071,,,Mackworth_Formal,519,0.6035268347522856,0,0,,8,0,1,0,0,0,Weiyu,3,30,3,12,0.7,0.1
,,,,,,,,,,,550,147748.3394181,,,Mackworth_Formal,520,0.6035268347522856,0,0,,8,0,1,0,0,0,Weiyu,3,30,3,12,0.7,0.1
,,,,,,,,,,,551,147748.9559643,,,Mackworth_Formal,521,0.6035268347522856,0,0,,8,0,1,0,0,0,Weiyu,3,30,3,12,0.7,0.1
,,,,,,,,,,,551,147749.5608674,,,Mackworth_Formal,522,0.6035268347522856,1,1,0.5384992000181228,8,0,1,1,0,0,Weiyu,3,30,3,12,0.7,0.1
,,,,,,,,,,,552,147750.1830802,,,Mackworth_Formal,523,0.6035268347522856,0,0,,8,0,1,0,0,0,Weiyu,3,30,3,12,0.7,0.1
,,,,,,,,,,,553,147750.807616,,,Mackworth_Formal,524,0.6035268347522856,0,0,,8,0,1,0,0,0,Weiyu,3,30,3,12,0.7,0.1
,,,,,,,,,,,553,147751.4189967,,,Mackworth_Formal,525,0.6035268347522856,0,0,,8,0,1,0,0,0,Weiyu,3,30,3,12,0.7,0.1
,,,,,,,,,,,554,147752.0296234,,,Mackworth_Formal,526,0.6035268347522856,0,0,,8,0,1,0,0,0,Weiyu,3,30,3,12,0.7,0.1
,,,,,,,,,,,554,147752.6384729,,,Mackworth_Formal,527,0.6035268347522856,0,0,,8,0,1,0,0,0,Weiyu,3,30,3,12,0.7,0.1
,,,,,,,,,,,555,147753.2460237,,,Mackworth_Formal,528,0.6035268347522856,1,1,0.5020121000125073,8,0,1,1,0,0,Weiyu,3,30,3,12,0.7,0.1
,,,,,,,,,,,556,147753.8715837,,,Mackworth_Formal,529,0.6035268347522856,0,0,,8,0,1,0,0,0,Weiyu,3,30,3,12,0.7,0.1
,,,,,,,,,,,556,147754.4941443,,,Mackworth_Formal,530,0.6035268347522856,0,0,,8,0,1,0,0,0,Weiyu,3,30,3,12,0.7,0.1
,,,,,,,,,,,557,147755.1176125,,,Mackworth_Formal,531,0.6035268347522856,1,1,0.5237938000063878,8,0,1,1,0,0,Weiyu,3,30,3,12,0.7,0.1
,,,,,,,,,,,557,147755.7435836,,,Mackworth_Formal,532,0.6035268347522856,0,0,,8,0,1,0,0,0,Weiyu,3,30,3,12,0.7,0.1
,,,,,,,,,,,558,147756.3513679,,,Mackworth_Formal,533,0.6035268347522856,0,0,,8,0,1,0,0,0,Weiyu,3,30,3,12,0.7,0.1
,,,,,,,,,,,559,147756.9874777,,,Mackworth_Formal,534,0.6035268347522856,0,0,,8,0,1,0,0,0,Weiyu,3,30,3,12,0.7,0.1
,,,,,,,,,,,559,147757.6178238,,,Mackworth_Formal,535,0.6035268347522856,0,0,,8,0,1,0,0,0,Weiyu,3,30,3,12,0.7,0.1
,,,,,,,,,,,560,147758.2527421,,,Mackworth_Formal,536,0.6035268347522856,0,0,,8,0,1,0,0,0,Weiyu,3,30,3,12,0.7,0.1
,,,,,,,,,,,561,147758.8848287,,,Mackworth_Formal,537,0.6035268347522856,0,0,,8,0,1,0,0,0,Weiyu,3,30,3,12,0.7,0.1
,,,,,,,,,,,561,147759.5071522,,,Mackworth_Formal,538,0.6035268347522856,0,0,,8,0,1,0,0,0,Weiyu,3,30,3,12,0.7,0.1
,,,,,,,,,,,562,147760.1145539,,,Mackworth_Formal,539,0.6035268347522856,0,0,,8,0,1,0,0,0,Weiyu,3,30,3,12,0.7,0.1
,,,,,,,,,,,562,147760.7319806,,,Mackworth_Formal,540,0.6035268347522856,0,0,,8,0,1,0,0,0,Weiyu,3,30,3,12,0.7,0.1
,,,,,,,,,,,563,147761.3573851,,,Mackworth_Formal,541,0.6035268347522856,0,0,,8,0,1,0,0,0,Weiyu,3,30,3,12,0.7,0.1
,,,,,,,,,,,564,147761.9762342,,,Mackworth_Formal,542,0.6035268347522856,0,0,,8,0,1,0,0,0,Weiyu,3,30,3,12,0.7,0.1
,,,,,,,,KSS,During,5,568,147766.2031427,,,,,,,,,,,,,,,Weiyu,3,30,3,12,0.7,0.1
,,,,,,,,Stress,During,,570,147768.6295799,2,,,,,,,,,,,,,,Weiyu,3,30,3,12,0.7,0.1
,,,,,,,,Frustration,During,,571,147769.6218241,,1,,,,,,,,,,,,,Weiyu,3,30,3,12,0.7,0.1
,,,,,,,,,,,574,147772.312891,,,Mackworth_Formal,543,0.6035268347522856,0,0,,8,0,1,0,0,0,Weiyu,3,30,3,12,0.7,0.1
,,,,,,,,,,,575,147772.9219592,,,Mackworth_Formal,544,0.6035268347522856,1,1,0.5382064000004902,8,0,1,1,0,0,Weiyu,3,30,3,12,0.7,0.1
,,,,,,,,,,,575,147773.5684481,,,Mackworth_Formal,545,0.6035268347522856,0,0,,8,0,1,0,0,0,Weiyu,3,30,3,12,0.7,0.1
,,,,,,,,,,,576,147774.2037306,,,Mackworth_Formal,546,0.6035268347522856,0,0,,8,0,1,0,0,0,Weiyu,3,30,3,12,0.7,0.1
,,,,,,,,,,,577,147774.8543413,,,Mackworth_Formal,547,0.6035268347522856,0,0,,8,0,1,0,0,0,Weiyu,3,30,3,12,0.7,0.1
,,,,,,,,,,,577,147775.4796015,,,Mackworth_Formal,548,0.6035268347522856,1,1,0.3983689000015147,8,0,1,1,0,0,Weiyu,3,30,3,12,0.7,0.1
,,,,,,,,,,,578,147776.1042976,,,Mackworth_Formal,549,0.6035268347522856,0,0,,8,0,1,0,0,0,Weiyu,3,30,3,12,0.7,0.1
,,,,,,,,,,,578,147776.7205176,,,Mackworth_Formal,550,0.6035268347522856,0,0,,8,0,1,0,0,0,Weiyu,3,30,3,12,0.7,0.1
,,,,,,,,,,,579,147777.3269975,,,Mackworth_Formal,551,0.6035268347522856,0,0,,8,0,1,0,0,0,Weiyu,3,30,3,12,0.7,0.1
,,,,,,,,,,,580,147777.9430122,,,Mackworth_Formal,552,0.6035268347522856,0,0,,8,0,1,0,0,0,Weiyu,3,30,3,12,0.7,0.1
,,,,,,,,,,,580,147778.5579332,,,Mackworth_Formal,553,0.6035268347522856,0,0,,8,0,1,0,0,0,Weiyu,3,30,3,12,0.7,0.1
,,,,,,,,,,,581,147779.198698,,,Mackworth_Formal,554,0.6035268347522856,0,0,,8,0,1,0,0,0,Weiyu,3,30,3,12,0.7,0.1
,,,,,,,,,,,582,147779.8331065,,,Mackworth_Formal,555,0.6035268347522856,0,0,,8,0,1,0,0,0,Weiyu,3,30,3,12,0.7,0.1
,,,,,,,,,,,582,147780.4744874,,,Mackworth_Formal,556,0.6035268347522856,0,0,,8,0,1,0,0,0,Weiyu,3,30,3,12,0.7,0.1
,,,,,,,,,,,583,147781.0929657,,,Mackworth_Formal,557,0.6035268347522856,0,0,,8,0,1,0,0,0,Weiyu,3,30,3,12,0.7,0.1
,,,,,,,,,,,583,147781.7172183,,,Mackworth_Formal,558,0.6035268347522856,0,0,,8,0,1,0,0,0,Weiyu,3,30,3,12,0.7,0.1
,,,,,,,,,,,584,147782.3338632,,,Mackworth_Formal,559,0.6035268347522856,0,0,,8,0,1,0,0,0,Weiyu,3,30,3,12,0.7,0.1
,,,,,,,,,,,585,147782.9392852,,,Mackworth_Formal,560,0.6035268347522856,1,1,0.42336640000576153,8,0,1,1,0,0,Weiyu,3,30,3,12,0.7,0.1
,,,,,,,,,,,585,147783.5646041,,,Mackworth_Formal,561,0.6035268347522856,0,0,,8,0,1,0,0,0,Weiyu,3,30,3,12,0.7,0.1
,,,,,,,,,,,586,147784.1839097,,,Mackworth_Formal,562,0.6035268347522856,0,0,,8,0,1,0,0,0,Weiyu,3,30,3,12,0.7,0.1
,,,,,,,,,,,587,147784.8179191,,,Mackworth_Formal,563,0.6035268347522856,0,0,,8,0,1,0,0,0,Weiyu,3,30,3,12,0.7,0.1
,,,,,,,,,,,587,147785.4369319,,,Mackworth_Formal,564,0.6035268347522856,1,1,0.3473896000068635,8,0,1,1,0,0,Weiyu,3,30,3,12,0.7,0.1
,,,,,,,,,,,588,147786.0699208,,,Mackworth_Formal,565,0.6035268347522856,0,0,,8,0,1,0,0,0,Weiyu,3,30,3,12,0.7,0.1
,,,,,,,,,,,588,147786.7036968,,,Mackworth_Formal,566,0.6035268347522856,0,0,,8,0,1,0,0,0,Weiyu,3,30,3,12,0.7,0.1
,,,,,,,,,,,589,147787.3356351,,,Mackworth_Formal,567,0.6035268347522856,0,0,,8,0,1,0,0,0,Weiyu,3,30,3,12,0.7,0.1
,,,,,,,,,,,590,147787.9540322,,,Mackworth_Formal,568,0.6035268347522856,1,1,0.38592709999647923,8,0,1,1,0,0,Weiyu,3,30,3,12,0.7,0.1
,,,,,,,,,,,590,147788.5844642,,,Mackworth_Formal,569,0.6035268347522856,0,0,,8,0,1,0,0,0,Weiyu,3,30,3,12,0.7,0.1
,,,,,,,,,,,591,147789.2188169,,,Mackworth_Formal,570,0.6035268347522856,0,0,,8,0,1,0,0,0,Weiyu,3,30,3,12,0.7,0.1
,,,,,,,,,,,592,147789.8436588,,,Mackworth_Formal,571,0.6035268347522856,0,0,,8,0,1,0,0,0,Weiyu,3,30,3,12,0.7,0.1
,,,,,,,,,,,592,147790.4773804,,,Mackworth_Formal,572,0.6035268347522856,0,0,,8,0,1,0,0,0,Weiyu,3,30,3,12,0.7,0.1
,,,,,,,,,,,593,147791.094303,,,Mackworth_Formal,573,0.6035268347522856,0,0,,8,0,1,0,0,0,Weiyu,3,30,3,12,0.7,0.1
,,,,,,,,,,,593,147791.7105485,,,Mackworth_Formal,574,0.6035268347522856,0,0,,8,0,1,0,0,0,Weiyu,3,30,3,12,0.7,0.1
,,,,,,,,,,,594,147792.344625,,,Mackworth_Formal,575,0.6035268347522856,0,0,,8,0,1,0,0,0,Weiyu,3,30,3,12,0.7,0.1
,,,,,,,,,,,595,147792.9890333,,,Mackworth_Formal,576,0.6035268347522856,0,0,,8,0,1,0,0,0,Weiyu,3,30,3,12,0.7,0.1
,,,,,,,,,,,595,147793.6096406,,,Mackworth_Formal,577,0.6035268347522856,0,0,,8,0,1,0,0,0,Weiyu,3,30,3,12,0.7,0.1
,,,,,,,,,,,596,147794.2255597,,,Mackworth_Formal,578,0.6035268347522856,0,0,,8,0,1,0,0,0,Weiyu,3,30,3,12,0.7,0.1
,,,,,,,,,,,597,147794.8325756,,,Mackworth_Formal,579,0.6035268347522856,0,0,,8,0,1,0,0,0,Weiyu,3,30,3,12,0.7,0.1
,,,,,,,,,,,597,147795.4701216,,,Mackworth_Formal,580,0.6035268347522856,0,0,,8,0,1,0,0,0,Weiyu,3,30,3,12,0.7,0.1
,,,,,,,,,,,598,147796.0800548,,,Mackworth_Formal,581,0.6035268347522856,0,0,,8,0,1,0,0,0,Weiyu,3,30,3,12,0.7,0.1
